File: data/JAA_CAL348.csv
Summary
Name,"JAA_CAL348.rslt"
Start time,2023 Jun 06 - 12:10
End time,2023 Jun 13 - 12:50
Operator,"JAA"
Results file path,"C:\Users\ge65ley\Desktop\Calorimetry_Results\AXD\Results_files\JAA_CAL348.rslt"
General Experiment Info
Bath temperature,20Â°C
,Sample - 25336:4
Total mass,6g
Name,"JAA_CAL348"
,Component - OPC
Mass,4g
Name,"OPC"
ID,"Karlstadt CEM I 52.5N 12.10.21"

"Time","Temperature [AmbientT(Therm3T)]","Temperature [Temperature]","Heat flow [Signal]","Heat [Signal]","Normalized heat flow [Signal]","Normalized heat [Signal]","Time markers"
-4285.73,25.6464,19.9998,NaN,NaN,NaN,NaN,""
-4285.53,25.6464,19.9998,1.05731e-06,NaN,2.64327e-07,NaN,""
-4263.75,25.6488,19.9998,9.92424e-07,NaN,2.48106e-07,NaN,""
-4248.44,25.6504,19.9998,9.68794e-07,NaN,2.42199e-07,NaN,""
-4231.55,25.6523,19.9998,9.75767e-07,NaN,2.43942e-07,NaN,""
-4202.47,25.6555,19.9999,4.44484e-07,NaN,1.11121e-07,NaN,""
-4175.37,25.6584,19.9999,2.91408e-07,NaN,7.2852e-08,NaN,""
-4154.48,25.6607,19.9999,5.97078e-07,NaN,1.4927e-07,NaN,""
-4141.79,25.6621,20.0001,6.57323e-07,NaN,1.64331e-07,NaN,""
-4116.23,25.6649,20.0005,6.40791e-07,NaN,1.60198e-07,NaN,""
-4113.24,25.6652,20.0004,6.38856e-07,NaN,1.59714e-07,NaN,""
-4097.39,25.6556,19.9998,6.28608e-07,NaN,1.57152e-07,NaN,""
-4047.56,25.6253,19.9998,5.96381e-07,NaN,1.49095e-07,NaN,""
-4033.93,25.617,19.9998,4.35427e-07,NaN,1.08857e-07,NaN,""
-4031.96,25.6158,19.9998,4.1209e-07,NaN,1.03022e-07,NaN,""
-4018.94,25.7506,19.9998,2.9221e-07,NaN,7.30524e-08,NaN,""
-4008.3,25.8606,19.9997,4.29542e-07,NaN,1.07385e-07,NaN,""
-4002.57,25.8711,19.9997,3.33652e-07,NaN,8.3413e-08,NaN,""
-3996.84,25.8467,19.9997,2.37763e-07,NaN,5.94407e-08,NaN,""
-3967.36,25.7213,19.9996,1.43748e-07,NaN,3.59369e-08,NaN,""
-3952.35,25.7197,19.9997,3.0387e-08,NaN,7.59676e-09,NaN,""
-3935.97,25.7513,19.9999,-9.59874e-08,NaN,-2.39968e-08,NaN,""
-3928.62,25.7655,19.9999,2.96947e-08,NaN,7.42367e-09,NaN,""
-3901.88,25.817,20.0001,-9.20057e-08,NaN,-2.30014e-08,NaN,""
-3887.44,25.8289,20.0001,-8.83416e-08,NaN,-2.20854e-08,NaN,""
-3850.16,25.7465,20.0001,-4.80079e-08,NaN,-1.2002e-08,NaN,""
-3841.68,25.7278,20.0001,-2.05427e-07,NaN,-5.13568e-08,NaN,""
-3837.14,25.7296,20.0001,-2.02922e-07,NaN,-5.07305e-08,NaN,""
-3781.92,25.7516,20,-1.69627e-08,NaN,-4.24068e-09,NaN,""
-3758.89,25.7774,20,-3.49052e-08,NaN,-8.72631e-09,NaN,""
-3735.87,25.8394,20.0001,-5.28477e-08,NaN,-1.32119e-08,NaN,""
-3714.45,25.8951,20.0001,-1.11987e-07,NaN,-2.79968e-08,NaN,""
-3693.03,25.8704,20.0002,-1.71126e-07,NaN,-4.27816e-08,NaN,""
-3687.16,25.8636,20.0002,-2.19405e-09,NaN,-5.48513e-10,NaN,""
-3663.5,25.8363,20.0003,-1.6198e-07,NaN,-4.04949e-08,NaN,""
-3648.65,25.8192,20.0002,-2.16529e-07,NaN,-5.41323e-08,NaN,""
-3614.03,25.7792,20.0001,-2.70696e-07,NaN,-6.76741e-08,NaN,""
-3607.3,25.7715,20.0001,-1.10827e-07,NaN,-2.77068e-08,NaN,""
-3601.98,25.7677,20.0001,-2.01877e-07,NaN,-5.04691e-08,NaN,""
-3596.66,25.7657,20,-2.92926e-07,NaN,-7.32315e-08,NaN,""
-3562.98,25.7531,19.9999,-6.79755e-08,NaN,-1.69939e-08,NaN,""
-3546.66,25.747,19.9999,-2.24335e-07,NaN,-5.60837e-08,NaN,""
-3514.9,25.7351,19.9998,2.19814e-07,NaN,5.49534e-08,NaN,""
-3491.3,25.7263,19.9997,5.11446e-09,NaN,1.27861e-09,NaN,""
-3472.5,25.7192,19.9996,-2.33475e-07,NaN,-5.83688e-08,NaN,""
-3448.93,25.7104,19.9996,-2.16286e-07,NaN,-5.40715e-08,NaN,""
-3445.5,25.7091,19.9996,-1.96438e-07,NaN,-4.91096e-08,NaN,""
-3423.54,25.7009,19.9998,-6.94121e-08,NaN,-1.7353e-08,NaN,""
-3403.7,25.6934,20,-1.90175e-07,NaN,-4.75438e-08,NaN,""
-3358.5,25.6765,19.9999,-4.65285e-07,NaN,-1.16321e-07,NaN,""
-3333.36,25.6671,19.9998,-5.76091e-07,NaN,-1.44023e-07,NaN,""
-3324.37,25.7198,19.9998,-6.15697e-07,NaN,-1.53924e-07,NaN,""
-3315.39,25.7725,19.9997,-6.55303e-07,NaN,-1.63826e-07,NaN,""
-3302.22,25.6655,19.9997,-7.13336e-07,NaN,-1.78334e-07,NaN,""
-3291.91,25.6217,19.9996,-6.20401e-07,NaN,-1.551e-07,NaN,""
-3269.48,25.7532,19.9995,-4.18182e-07,NaN,-1.04545e-07,NaN,""
-3255.5,25.7708,19.9994,-2.79782e-07,NaN,-6.99456e-08,NaN,""
-3240.77,25.7734,19.9995,-1.34021e-07,NaN,-3.35053e-08,NaN,""
-3240.03,25.7735,19.9995,-1.26659e-07,NaN,-3.16648e-08,NaN,""
-3227.17,25.7758,19.9996,-2.52451e-07,NaN,-6.31128e-08,NaN,""
-3210.52,25.7787,19.9998,-9.78704e-09,NaN,-2.44676e-09,NaN,""
-3196.17,25.7812,20,-9.08108e-08,NaN,-2.27027e-08,NaN,""
-3190.03,25.7823,20,-1.25483e-07,NaN,-3.13707e-08,NaN,""
-3188.1,25.7826,20,-5.69496e-08,NaN,-1.42374e-08,NaN,""
-3186.48,25.7816,20,-1.08953e-08,NaN,-2.72381e-09,NaN,""
-3138.11,25.7525,20,-1.49017e-07,NaN,-3.72543e-08,NaN,""
-3096.59,25.7274,20,3.06939e-08,NaN,7.67348e-09,NaN,""
-3065.44,25.7086,20,-1.17725e-07,NaN,-2.94311e-08,NaN,""
-3039.24,25.6964,20,-1.3016e-07,NaN,-3.254e-08,NaN,""
-3016.44,25.6967,20,2.79663e-07,NaN,6.99158e-08,NaN,""
-2967.85,25.6975,20,1.7851e-07,NaN,4.46274e-08,NaN,""
-2938.22,25.698,20,-1.45143e-07,NaN,-3.62858e-08,NaN,""
-2914.54,25.6983,20,5.74555e-08,NaN,1.43639e-08,NaN,""
-2904.71,25.6985,20,-1.03982e-08,NaN,-2.59955e-09,NaN,""
-2893.33,25.6987,19.9999,-8.89238e-08,NaN,-2.22309e-08,NaN,""
-2870.7,25.6758,19.9996,-2.45082e-07,NaN,-6.12706e-08,NaN,""
-2856.02,25.661,19.9994,9.23404e-08,NaN,2.30851e-08,NaN,""
-2844.84,25.6498,19.9994,2.41541e-07,NaN,6.03854e-08,NaN,""
-2824.65,25.6687,19.9995,8.37906e-08,NaN,2.09476e-08,NaN,""
-2804.46,25.7348,19.9996,-7.74217e-08,NaN,-1.93554e-08,NaN,""
-2779.03,25.818,19.9997,-3.01234e-07,NaN,-7.53085e-08,NaN,""
-2756.64,25.7415,19.9997,-4.55489e-07,NaN,-1.13872e-07,NaN,""
-2728.78,25.6464,19.9998,-5.18022e-07,NaN,-1.29506e-07,NaN,""
-2700.92,25.6931,19.9997,-5.35292e-07,NaN,-1.33823e-07,NaN,""
-2685.27,25.7387,19.9997,-3.09136e-07,NaN,-7.72841e-08,NaN,""
-2677.97,25.76,19.9997,-3.33473e-07,NaN,-8.33683e-08,NaN,""
-2670.8,25.7628,19.9996,-3.55346e-07,NaN,-8.88364e-08,NaN,""
-2652,25.77,19.9996,-1.12034e-07,NaN,-2.80085e-08,NaN,""
-2631.59,25.7778,19.9995,1.30557e-07,NaN,3.26393e-08,NaN,""
-2616.39,25.7836,19.9996,2.49886e-07,NaN,6.24715e-08,NaN,""
-2588.05,25.7944,19.9998,2.53613e-07,NaN,6.34032e-08,NaN,""
-2578.09,25.7983,19.9998,7.57157e-09,NaN,1.89289e-09,NaN,""
-2560.94,25.8048,19.9999,2.32194e-07,NaN,5.80486e-08,NaN,""
-2559.27,25.8055,19.9999,2.13657e-07,NaN,5.34142e-08,NaN,""
-2537.09,25.7444,20,-3.17255e-08,NaN,-7.93137e-09,NaN,""
-2514.92,25.6833,19.9999,-2.50997e-07,NaN,-6.27492e-08,NaN,""
-2491.28,25.7231,19.9998,-1.44155e-07,NaN,-3.60388e-08,NaN,""
-2486.53,25.734,19.9997,-1.22665e-07,NaN,-3.06662e-08,NaN,""
-2454.9,25.8071,19.9997,NaN,NaN,NaN,NaN,""
-2423.26,25.7032,19.9998,NaN,NaN,NaN,NaN,""
-2408.93,25.69,19.9999,NaN,NaN,NaN,NaN,""
-2371.42,25.6949,20,NaN,NaN,NaN,NaN,""
-2329.59,25.7086,20,NaN,NaN,NaN,NaN,""
-2280.79,25.7736,19.9999,NaN,NaN,NaN,NaN,""
-2255.2,25.7473,19.9999,NaN,NaN,NaN,NaN,""
-2229.61,25.721,19.9998,NaN,NaN,NaN,NaN,""
-2211.73,25.8817,19.9998,NaN,NaN,NaN,NaN,""
-2186.34,25.7313,19.9997,NaN,NaN,NaN,NaN,""
-2147.31,25.7266,19.9999,NaN,NaN,NaN,NaN,""
-2118.25,25.7231,20.0001,NaN,NaN,NaN,NaN,""
-2028.1,25.7122,19.9999,NaN,NaN,NaN,NaN,""
-1941.63,25.7064,19.9998,NaN,NaN,NaN,NaN,""
-1850.99,25.7003,19.9999,NaN,NaN,NaN,NaN,""
-1791.97,25.7415,20.0001,NaN,NaN,NaN,NaN,""
-1770.2,25.7567,20.0005,NaN,NaN,NaN,NaN,""
-1740.19,25.7776,19.9998,NaN,NaN,NaN,NaN,""
-1732.95,25.7827,19.9998,NaN,NaN,NaN,NaN,""
-1707.31,25.7041,19.9999,NaN,NaN,NaN,NaN,""
-1676.18,25.7684,20,NaN,NaN,NaN,NaN,""
-1641.39,25.7242,19.9999,NaN,NaN,NaN,NaN,""
-1612.35,25.6873,19.9998,NaN,NaN,NaN,NaN,""
-1588.45,25.7033,20,NaN,NaN,NaN,NaN,""
-1564.73,25.7516,20.0003,NaN,NaN,NaN,NaN,""
-1544.06,25.7287,20.0001,NaN,NaN,NaN,NaN,""
-1515.45,25.678,19.9998,NaN,NaN,NaN,NaN,""
-1487.88,25.6839,19.9998,NaN,NaN,NaN,NaN,""
-1434.68,25.7503,19.9998,NaN,NaN,NaN,NaN,""
-1382.06,25.73,19.9998,NaN,NaN,NaN,NaN,""
-1329.43,25.7098,19.9998,NaN,NaN,NaN,NaN,""
-1280.9,25.7547,19.9997,NaN,NaN,NaN,NaN,""
-1256.66,25.7493,19.9999,NaN,NaN,NaN,NaN,""
-1232.42,25.6446,20.0001,NaN,NaN,NaN,NaN,""
-1216.26,25.6639,20,NaN,NaN,NaN,NaN,""
-1196.88,25.709,19.9998,NaN,NaN,NaN,NaN,""
-1171.4,25.6974,19.9997,NaN,NaN,NaN,NaN,""
-1122.93,25.6751,19.9997,NaN,NaN,NaN,NaN,""
-1037.15,25.7287,19.9998,NaN,NaN,NaN,NaN,""
-936.507,25.7916,20,NaN,NaN,NaN,NaN,""
-869.714,25.7574,20,NaN,NaN,NaN,NaN,""
-833.343,25.8083,20.0001,NaN,NaN,NaN,NaN,""
-799.48,25.834,20,NaN,NaN,NaN,NaN,""
-772.73,25.6403,19.9999,NaN,NaN,NaN,NaN,""
-741.868,25.7783,19.9998,NaN,NaN,NaN,NaN,""
-679.23,25.7742,19.9997,NaN,NaN,NaN,NaN,""
-631.628,25.7711,20,NaN,NaN,NaN,NaN,""
-600.292,25.7519,20,NaN,NaN,NaN,NaN,""
-536.23,25.7125,19.9998,NaN,NaN,NaN,NaN,""
-514.019,25.7291,20.0002,NaN,NaN,NaN,NaN,""
-491.807,25.7492,20.0006,NaN,NaN,NaN,NaN,""
-468.96,25.7698,20.0008,NaN,NaN,NaN,NaN,""
-446.351,25.6902,20.0011,NaN,NaN,NaN,NaN,""
-432.539,25.7067,20.0008,NaN,NaN,NaN,NaN,""
-413.605,25.7802,20.0004,NaN,NaN,NaN,NaN,""
-397.021,25.7884,20.0005,NaN,NaN,NaN,NaN,""
-370.469,25.7577,20.0008,NaN,NaN,NaN,NaN,""
-338.851,25.7293,20.0007,NaN,NaN,NaN,NaN,""
-290.264,25.738,20.0006,NaN,NaN,NaN,NaN,""
-245.548,25.7306,20.0004,NaN,NaN,NaN,NaN,""
-194.461,25.6605,20.0001,NaN,NaN,NaN,NaN,""
-180.761,25.6489,20.0003,NaN,NaN,NaN,NaN,""
-167.062,25.668,20.0006,NaN,NaN,NaN,NaN,""
-136.906,25.7101,19.9999,NaN,NaN,NaN,NaN,""
-119.88,25.7116,19.9999,NaN,NaN,NaN,NaN,""
-88.0113,25.7144,20.0002,NaN,NaN,NaN,NaN,""
-47.0582,25.718,19.9998,NaN,NaN,NaN,NaN,""
-38.8277,25.7187,19.9999,NaN,NaN,NaN,NaN,""
-17.23,25.8359,19.9999,NaN,NaN,NaN,NaN,""
-5.79254,25.5846,19.9999,NaN,NaN,NaN,NaN,""
20.6039,25.644,20,NaN,NaN,NaN,NaN,""
43.2324,25.8172,20,NaN,NaN,NaN,NaN,""
65.8608,25.9904,19.9999,NaN,NaN,NaN,NaN,""
90.1909,25.8456,19.9998,NaN,NaN,NaN,NaN,""
110.48,25.767,20,NaN,NaN,NaN,NaN,""
140.789,25.9029,20.0003,NaN,NaN,NaN,NaN,""
166.892,25.8538,20.0002,NaN,NaN,NaN,NaN,""
200.305,25.7909,20,NaN,NaN,NaN,NaN,""
236.23,25.7204,20.0001,NaN,NaN,NaN,NaN,""
264.605,25.6635,20.0002,NaN,NaN,NaN,NaN,""
295.507,26.033,20.0003,NaN,NaN,NaN,NaN,""
308.379,25.9456,20.0003,NaN,NaN,NaN,NaN,""
326.172,25.8247,19.9998,NaN,NaN,NaN,NaN,""
348.929,25.7458,19.9998,NaN,NaN,NaN,NaN,""
377.958,25.826,19.9999,NaN,NaN,NaN,NaN,""
450.012,25.7905,20,NaN,NaN,NaN,NaN,""
504.502,25.766,20,NaN,NaN,NaN,NaN,""
598.738,25.7321,19.9998,NaN,NaN,NaN,NaN,""
662.848,25.7704,19.9998,NaN,NaN,NaN,NaN,""
726.957,25.8087,20,NaN,NaN,NaN,NaN,""
745.036,25.6628,20.0001,NaN,NaN,NaN,NaN,""
772.114,25.7534,20.0001,NaN,NaN,NaN,NaN,""
799.192,25.8439,19.9998,NaN,NaN,NaN,NaN,""
824.747,25.8448,19.9996,NaN,NaN,NaN,NaN,""
864.487,25.8461,19.9996,NaN,NaN,NaN,NaN,""
912.086,25.8206,19.9997,NaN,NaN,NaN,NaN,""
1009.84,25.7683,20.0001,NaN,NaN,NaN,NaN,""
1048.31,25.7545,19.9997,NaN,NaN,NaN,NaN,""
1086.79,25.7643,19.9993,NaN,NaN,NaN,NaN,""
1115.14,25.7716,19.9998,NaN,NaN,NaN,NaN,""
1121.5,25.7733,19.9998,NaN,NaN,NaN,NaN,""
1138.61,25.9346,19.9998,NaN,NaN,NaN,NaN,""
1147.21,25.6496,19.9998,NaN,NaN,NaN,NaN,""
1177.13,25.851,19.9999,NaN,NaN,NaN,NaN,""
1197.6,26.1498,20,NaN,NaN,NaN,NaN,""
1208.79,25.9087,20,NaN,NaN,NaN,NaN,""
1249.92,25.9052,20,NaN,NaN,NaN,NaN,""
1291.06,25.9018,19.9998,NaN,NaN,NaN,NaN,""
1315.27,26.0616,19.9997,NaN,NaN,NaN,NaN,""
1348.89,25.944,19.9999,NaN,NaN,NaN,NaN,""
1382.52,25.8265,20.0002,NaN,NaN,NaN,NaN,""
1424.8,25.7955,20.0002,NaN,NaN,NaN,NaN,""
1478.66,25.756,19.9995,NaN,NaN,NaN,NaN,""
1514.95,25.7294,19.9997,NaN,NaN,NaN,NaN,""
1540.1,25.8022,19.9998,NaN,NaN,NaN,NaN,""
1565.25,25.8751,19.9997,NaN,NaN,NaN,NaN,""
1606.72,25.8094,19.9995,NaN,NaN,NaN,NaN,""
1616.57,25.967,19.9996,NaN,NaN,NaN,NaN,""
1626.41,26.1247,19.9997,NaN,NaN,NaN,NaN,""
1651.52,25.9113,20,NaN,NaN,NaN,NaN,"Reaction start. Measuring position. Signal correct"
1652.47,25.9032,20,6.6633e-06,6.32389e-06,1.66582e-06,1.58097e-06,""
1946.47,25.7263,20,0.00378451,0.0160477,0.000946128,0.00401193,""
1965.97,25.8874,20,0.0641544,0.601399,0.0160386,0.15035,""
1990.47,25.8636,20,0.155759,3.33337,0.0389397,0.833342,""
2011.47,25.8432,20,0.211785,7.23436,0.0529462,1.80859,""
2032.47,25.8228,20,0.245986,12.0746,0.0614964,3.01864,""
2058.97,25.8018,20,0.266521,18.9102,0.0666302,4.72756,""
2091.97,25.7806,20,0.270659,27.8209,0.0676647,6.95523,""
2135.97,25.7524,20.0001,0.258279,39.5053,0.0645698,9.87634,""
2197.84,25.7999,20.0001,0.228821,54.6064,0.0572053,13.6516,""
2269.22,25.8258,19.9998,0.192667,69.6384,0.0481667,17.4096,""
2343.47,25.8149,19.9996,0.158671,82.6523,0.0396676,20.6631,""
2427.97,25.8025,19.9999,0.126228,94.6431,0.0315569,23.6608,""
2496.71,25.7933,19.9997,0.104587,102.554,0.0261468,25.6384,""
2585.97,25.798,19.9999,0.0819469,110.837,0.0204867,27.7093,""
2683.66,25.8032,19.9999,0.0629675,117.873,0.0157419,29.4682,""
2778.34,25.8603,19.9999,0.0490241,123.145,0.012256,30.7861,""
2882.97,25.8701,19.9999,0.0374932,127.64,0.0093733,31.91,""
3006.53,25.7717,19.9999,0.0276871,131.631,0.00692178,32.9077,""
3154.91,25.8082,19.9994,0.0197241,135.107,0.00493103,33.7767,""
3301.83,25.826,19.9999,0.0145451,137.598,0.00363628,34.3995,""
3491.78,25.7842,19.9998,0.0103376,139.927,0.0025844,34.9817,""
3697.34,25.946,19.9998,0.00765559,141.752,0.0019139,35.4379,""
3981.24,25.7716,19.9999,0.00563578,143.607,0.00140894,35.9018,""
4349.4,25.7446,19.9994,0.00433102,145.413,0.00108275,36.3532,""
4667.99,26.019,19.9998,0.00373005,146.689,0.000932513,36.6722,""
5124.49,25.8107,19.9998,0.00321864,148.265,0.00080466,37.0661,""
5676.75,25.7166,19.9997,0.00283757,149.929,0.000709393,37.4823,""
6261.19,25.8195,20,0.00256029,151.502,0.000640072,37.8756,""
6899.02,26.1065,20,0.00233789,153.061,0.000584473,38.2653,""
7441.85,25.7553,19.9998,0.00219742,154.29,0.000549355,38.5725,""
8209.71,25.7711,19.9997,0.00210208,155.932,0.000525521,38.9831,""
8826.27,25.7256,19.9998,0.00208084,157.221,0.000520209,39.3053,""
9604.3,25.8237,19.9999,0.00204629,158.828,0.000511572,39.707,""
10379.9,26.1631,19.9997,0.00199779,160.396,0.000499448,40.0991,""
10988.3,25.8787,19.9999,0.00195743,161.6,0.000489358,40.4,""
11650.4,26.0099,20,0.00191547,162.882,0.000478867,40.7204,""
12219.9,25.8824,20.0003,0.00188226,163.963,0.000470566,40.9908,""
12925.8,26.028,19.9998,0.00184814,165.279,0.000462034,41.3197,""
13502,26.1271,19.9999,0.00182447,166.337,0.000456118,41.5843,""
14198.8,25.9353,20,0.00180172,167.6,0.000450429,41.9001,""
14833.7,26.2084,19.9999,0.00178582,168.739,0.000446455,42.1848,""
15291,25.9279,19.9998,0.00177785,169.554,0.000444463,42.3885,""
15949.7,25.9687,19.9998,0.00177159,170.723,0.000442898,42.6807,""
16471.7,25.9828,20.0003,0.00176834,171.647,0.000442086,42.9117,""
17094.2,25.94,19.9999,0.0017691,172.748,0.000442275,43.1869,""
17643.4,26.0476,19.9997,0.00177335,173.72,0.000443337,43.4301,""
18417.3,26.1886,19.9996,0.00178436,175.096,0.000446089,43.7741,""
18973.6,26.3978,19.9999,0.00179736,176.092,0.000449339,44.0231,""
19561.4,26.242,20.0002,0.00181465,177.154,0.000453663,44.2885,""
20314.6,26.0144,19.9997,0.00184123,178.531,0.000460308,44.6328,""
20905.1,26.1252,20.0001,0.00186504,179.625,0.000466259,44.9063,""
21265.2,26.2065,19.9996,0.00188196,180.3,0.000470489,45.0749,""
21697.5,25.9855,19.9996,0.00190506,181.118,0.000476264,45.2796,""
22574.1,25.8313,19.9997,0.00195841,182.811,0.000489602,45.7027,""
23408.4,25.8504,20,0.00201984,184.47,0.000504959,46.1175,""
24236.8,25.7291,19.9995,0.00208593,186.17,0.000521483,46.5424,""
24880.2,25.814,19.9999,0.00214133,187.529,0.000535332,46.8824,""
25576.5,25.729,19.9995,0.00220573,189.043,0.000551433,47.2608,""
26405.2,25.7323,19.9998,0.00228966,190.905,0.000572414,47.7262,""
27075,25.743,19.9998,0.00236529,192.463,0.000591324,48.1158,""
27825.1,25.6859,19.9997,0.00245886,194.272,0.000614716,48.5681,""
28593.7,25.6941,19.9998,0.0025625,196.201,0.000640624,49.0503,""
29358.8,25.6463,19.9999,0.00267456,198.204,0.00066864,49.551,""
29987.9,25.6851,20.0002,0.0027746,199.917,0.00069365,49.9794,""
30456.3,25.7071,19.9999,0.00285437,201.236,0.000713592,50.309,""
31127.3,25.6742,19.9998,0.00297749,203.192,0.000744374,50.7979,""
31763,25.8004,20.0002,0.003103,205.124,0.00077575,51.281,""
32230.5,25.6277,19.9995,0.00320115,206.598,0.000800286,51.6494,""
33404.6,25.6493,19.9997,0.00347281,210.511,0.000868203,52.6279,""
34101.7,25.5715,20.0001,0.00366354,212.997,0.000915886,53.2493,""
34995.1,25.5983,19.9998,0.00393777,216.392,0.000984444,54.098,""
35889.5,25.5757,19.9997,0.00421842,220.042,0.0010546,55.0105,""
36571,25.4943,20.0001,0.00443765,222.988,0.00110941,55.7469,""
37555.4,25.5931,19.9999,0.00477152,227.52,0.00119288,56.8799,""
38522.2,25.5988,20.0001,0.00510396,232.293,0.00127599,58.0731,""
39413.7,25.5746,20,0.00541383,236.981,0.00135346,59.2451,""
40036.9,25.5872,19.9999,0.00563364,240.423,0.00140841,60.1056,""
40630.3,25.5918,19.9999,0.00584346,243.828,0.00146086,60.9571,""
41499.4,25.634,20.0004,0.00615227,249.041,0.00153807,62.2603,""
42274,25.6546,19.9997,0.00642598,253.913,0.00160649,63.4783,""
42878.2,25.6517,19.9999,0.00663858,257.86,0.00165965,64.465,""
43622.9,25.5798,19.9998,0.00689713,262.899,0.00172428,65.7248,""
44348.9,25.5789,20,0.00714474,267.997,0.00178618,66.9993,""
44910.8,25.5575,19.9996,0.0073324,272.065,0.0018331,68.0163,""
45556.9,25.4856,20.0001,0.00754297,276.87,0.00188574,69.2176,""
46215.5,25.5677,19.9997,0.00775148,281.907,0.00193787,70.4767,""
46964.5,25.5906,19.9998,0.00798012,287.8,0.00199503,71.9499,""
47640.6,25.5679,19.9997,0.0081774,293.262,0.00204435,73.3156,""
48327.4,25.5421,19.9995,0.00836776,298.945,0.00209194,74.7361,""
48947.2,25.5412,19.9999,0.00853051,304.181,0.00213263,76.0453,""
49775,25.5159,20,0.00873404,311.329,0.00218351,77.8323,""
50544.2,25.5556,19.9998,0.00890752,318.115,0.00222688,79.5287,""
51214,25.5182,19.9999,0.00904588,324.128,0.00226147,81.032,""
51823.1,25.4863,19.9996,0.00916167,329.673,0.00229042,82.4183,""
52431.1,25.5295,19.9996,0.00926779,335.276,0.00231695,83.819,""
53212.2,25.4973,19.9999,0.00939768,342.567,0.00234942,85.6417,""
53922.3,25.5262,20,0.00950528,349.279,0.00237632,87.3198,""
54463.7,25.5229,20,0.00958216,354.446,0.00239554,88.6116,""
55355.7,25.4848,19.9996,0.00969326,363.044,0.00242331,90.761,""
56092.4,25.512,20,0.00976979,370.214,0.00244245,92.5536,""
56983.8,25.4763,20,0.00983632,378.955,0.00245908,94.7388,""
57705.2,25.4672,20.0003,0.00986087,386.061,0.00246522,96.5154,""
58314.3,25.464,19.9999,0.00986923,392.07,0.00246731,98.0175,""
58924.5,25.5089,20.0002,0.00987162,398.094,0.00246791,99.5235,""
59793.8,25.5099,19.9995,0.00986579,406.673,0.00246645,101.668,""
60434.3,25.4839,19.9998,0.00985546,412.989,0.00246386,103.247,""
61111.4,25.489,20,0.00983917,419.657,0.00245979,104.914,""
62097.6,25.467,19.9999,0.00981188,429.347,0.00245297,107.337,""
62887.7,25.4857,19.9999,0.00979099,437.091,0.00244775,109.273,""
63628.3,25.4835,19.9996,0.00977572,444.337,0.00244393,111.084,""
64661.9,25.4913,19.9998,0.00973921,454.424,0.0024348,113.606,""
65243.9,25.5232,20.0005,0.00971099,460.084,0.00242775,115.021,""
65856.5,25.4744,19.9999,0.00967461,466.022,0.00241865,116.506,""
66610.2,25.522,19.9997,0.00962434,473.295,0.00240608,118.324,""
67400.6,25.492,19.9993,0.00956441,480.878,0.0023911,120.219,""
68344.2,25.5249,20.0002,0.00948977,489.869,0.00237244,122.467,""
68924.3,25.5408,20,0.00944192,495.36,0.00236048,123.84,""
69672.1,25.5552,19.9998,0.00937867,502.396,0.00234467,125.599,""
70998.4,25.5499,20.0001,0.0092635,514.759,0.00231588,128.69,""
71524.3,25.3982,20.0001,0.00921679,519.618,0.0023042,129.905,""
72344.8,25.5601,20,0.00914389,527.151,0.00228597,131.788,""
73252.4,25.5522,19.9996,0.00906214,535.413,0.00226554,133.853,""
73845.4,25.6379,19.9999,0.00900685,540.772,0.00225171,135.193,""
74473.4,26.4477,20.0008,0.00894661,546.408,0.00223665,136.602,""
75255,26.5554,20.0005,0.0088706,553.372,0.00221765,138.343,""
75991.4,26.5728,19.9996,0.0087974,559.877,0.00219935,139.969,""
76463.3,26.539,19.9993,0.00875012,564.017,0.00218753,141.004,""
77048.9,26.5326,20.0002,0.00869009,569.124,0.00217252,142.281,""
77558.1,26.6161,20.0002,0.008637,573.536,0.00215925,143.384,""
78080.9,26.6805,19.9999,0.00858141,578.037,0.00214535,144.509,""
78753.3,26.5764,19.9999,0.00850811,583.783,0.00212703,145.946,""
79497.5,26.6524,19.9998,0.00842668,590.083,0.00210667,147.521,""
80724.4,26.594,19.9997,0.00829266,600.339,0.00207317,150.085,""
81744.6,26.6525,20.0001,0.00818184,608.744,0.00204546,152.186,""
82638.7,26.6287,19.9997,0.00808405,616.016,0.00202101,154.004,""
83256.5,26.675,19.9999,0.00801381,620.989,0.00200345,155.247,""
83770.2,26.6947,20,0.00795724,625.091,0.00198931,156.273,""
84348.4,26.6584,19.9999,0.00789192,629.673,0.00197298,157.418,""
84959.6,26.7064,19.9996,0.00782208,634.475,0.00195552,158.619,""
85654.6,26.4077,19.9994,0.00774076,639.883,0.00193519,159.971,""
86284.8,26.7324,19.9998,0.00766941,644.739,0.00191735,161.185,""
87122.9,26.7746,20,0.00757482,651.127,0.00189371,162.782,""
87923.2,26.7268,19.9997,0.00748373,657.151,0.00187093,164.288,""
88670.8,26.7935,20,0.0073975,662.715,0.00184938,165.679,""
89400.2,26.8012,19.9998,0.00731546,668.081,0.00182887,167.02,""
90338.2,26.8422,19.9998,0.00720878,674.893,0.00180219,168.723,""
91256.6,26.8296,20,0.00710446,681.465,0.00177611,170.366,""
91941.3,26.678,19.9998,0.00702708,686.304,0.00175677,171.576,""
92475.7,26.7206,19.9997,0.00696573,690.043,0.00174143,172.511,""
93264.2,26.797,19.9998,0.00687714,695.5,0.00171928,173.875,""
94209.9,26.7857,19.9999,0.00677081,701.954,0.0016927,175.488,""
94803.4,26.761,19.9997,0.00670405,705.952,0.00167601,176.488,""
95630.8,26.4777,19.9994,0.00661152,711.46,0.00165288,177.865,""
96155.3,26.7708,19.9999,0.00655341,714.913,0.00163835,178.728,""
96947.7,26.6899,20,0.00646527,720.071,0.00161632,180.018,""
97551.8,26.626,20,0.00639849,723.956,0.00159962,180.989,""
98304.4,26.536,19.9998,0.00631517,728.74,0.00157879,182.185,""
98799.6,26.5091,19.9997,0.0062614,731.855,0.00156535,182.964,""
99434.5,26.5639,20,0.00619187,735.808,0.00154797,183.952,""
100254,26.5637,20,0.0061034,740.844,0.00152585,185.211,""
100939,26.5019,20,0.00602961,745.004,0.0015074,186.251,""
101472,25.6655,19.9989,0.00597286,748.199,0.00149322,187.05,""
102041,25.7966,19.9989,0.00591124,751.581,0.00147781,187.895,""
102623,26.0588,20.0005,0.00584932,755.005,0.00146233,188.751,""
103113,26.0739,19.9998,0.00579755,757.856,0.00144939,189.464,""
103613,25.5261,19.9995,0.00574497,760.741,0.00143624,190.185,""
104336,25.6898,19.9996,0.00566905,764.866,0.00141726,191.216,""
104956,25.6985,19.9999,0.00560458,768.364,0.00140114,192.091,""
105480,25.4564,19.9997,0.00555079,771.288,0.0013877,192.822,""
106335,25.4804,19.9997,0.0054639,775.994,0.00136597,193.999,""
106850,25.3347,19.9998,0.00541191,778.792,0.00135298,194.698,""
107584,25.492,19.9993,0.00533773,782.741,0.00133443,195.685,""
108304,25.6122,19.9998,0.005266,786.558,0.0013165,196.64,""
108833,25.4762,20,0.0052139,789.327,0.00130348,197.332,""
109599,25.549,19.9999,0.00513914,793.294,0.00128479,198.324,""
110338,25.4205,20.0002,0.00506751,797.065,0.00126688,199.266,""
110802,25.486,19.9995,0.00502321,799.406,0.0012558,199.851,""
111698,25.5696,19.9997,0.00493875,803.871,0.00123469,200.968,""
112335,25.5175,20.0001,0.00487914,806.997,0.00121978,201.749,""
112955,25.6067,20.0001,0.00482203,810.005,0.00120551,202.501,""
113521,25.5501,19.9998,0.00477046,812.718,0.00119261,203.18,""
114105,25.5101,19.9997,0.00471822,815.492,0.00117956,203.873,""
114585,25.5495,20.0001,0.00467541,817.742,0.00116885,204.436,""
115526,25.4975,20.0001,0.00459435,822.104,0.00114859,205.526,""
116032,25.3233,19.9999,0.00455076,824.421,0.00113769,206.105,""
116613,25.5529,20.0002,0.00450155,827.049,0.00112539,206.762,""
117358,25.5225,19.9995,0.00443923,830.376,0.00110981,207.594,""
118114,25.451,19.9998,0.00437689,833.71,0.00109422,208.427,""
118631,25.6499,19.9998,0.00433508,835.962,0.00108377,208.991,""
119574,25.2113,19.9998,0.00425967,840.017,0.00106492,210.004,""
120373,25.501,20.0002,0.0041965,843.395,0.00104913,210.849,""
120866,25.4615,20.0001,0.00415769,845.452,0.00103942,211.363,""
121655,25.3104,19.9997,0.00409652,848.708,0.00102413,212.177,""
122455,25.3076,19.9996,0.00403568,851.962,0.00100892,212.99,""
123596,25.2463,19.9994,0.00395001,856.517,0.000987503,214.129,""
124295,25.2718,19.9998,0.00389845,859.259,0.000974613,214.815,""
124820,25.2963,20.0001,0.00386087,861.298,0.000965216,215.324,""
125490,25.2174,19.9996,0.00381304,863.869,0.000953259,215.967,""
126303,25.2437,19.9994,0.00375575,866.944,0.000938938,216.736,""
127186,25.2819,20,0.00369535,870.236,0.000923839,217.559,""
127963,25.2369,20,0.00364376,873.086,0.000910941,218.272,""
128653,25.2133,19.9997,0.00359886,875.583,0.000899715,218.896,""
129660,25.3304,19.9999,0.00353549,879.177,0.000883872,219.794,""
130391,25.3802,20,0.00349034,881.743,0.000872586,220.436,""
130980,25.2482,19.9999,0.00345511,883.79,0.000863777,220.948,""
131612,25.274,19.9996,0.00341832,885.962,0.00085458,221.49,""
132191,25.2118,19.9991,0.00338575,887.93,0.000846437,221.983,""
133050,25.3222,20.0002,0.00333818,890.817,0.000834544,222.704,""
133607,25.0996,19.9996,0.00330879,892.67,0.000827197,223.168,""
134237,25.1124,19.9994,0.00327697,894.743,0.000819243,223.686,""
134827,25.0611,19.9997,0.00324677,896.671,0.000811693,224.168,""
135670,25.094,19.9996,0.003206,899.388,0.000801499,224.847,""
136361,25.0673,19.9998,0.00317326,901.594,0.000793314,225.399,""
137097,25.1023,19.9996,0.00313961,903.915,0.000784903,225.979,""
137762,25.0623,19.9995,0.0031106,905.994,0.000777651,226.498,""
138743,25.0903,20,0.00306899,909.024,0.000767247,227.256,""
139351,24.9708,20,0.00304379,910.882,0.000760947,227.72,""
139982,25.075,19.9997,0.00301858,912.795,0.000754646,228.199,""
140685,25.0615,19.9998,0.00299189,914.908,0.000747972,228.727,""
141386,25.0311,19.9999,0.00296544,916.998,0.000741361,229.249,""
142196,25.0862,19.9999,0.0029358,919.386,0.00073395,229.846,""
142915,25.1172,19.9999,0.00291098,921.487,0.000727746,230.372,""
144074,25.0875,20,0.00287076,924.838,0.00071769,231.209,""
144834,25.1321,19.9999,0.00284577,927.012,0.000711441,231.753,""
145924,25.1455,20.0001,0.00281071,930.094,0.000702677,232.524,""
146802,25.1593,19.9995,0.00278319,932.55,0.000695797,233.137,""
147671,25.1445,19.9995,0.00275673,934.956,0.000689181,233.739,""
148323,25.1347,20.0008,0.00273773,936.747,0.000684433,234.187,""
149107,25.1774,20.0003,0.00271515,938.884,0.000678787,234.721,""
149977,25.1709,20.0001,0.00268989,941.237,0.000672473,235.309,""
151092,25.0989,19.9998,0.00265905,944.218,0.000664763,236.054,""
151798,25.088,19.9998,0.00263948,946.088,0.00065987,236.522,""
152657,24.9909,19.9998,0.00261699,948.345,0.000654247,237.086,""
153338,25.0154,19.9996,0.00259889,950.121,0.000649723,237.53,""
154047,25.0556,20.0001,0.00258135,951.957,0.000645338,237.989,""
154896,25.0401,19.9998,0.00255996,954.141,0.00063999,238.535,""
155461,25.0489,19.9999,0.00254643,955.584,0.000636608,238.896,""
156417,25.0384,19.9996,0.00252324,958.006,0.000630809,239.502,""
156955,25.1064,19.9997,0.00251079,959.36,0.000627698,239.84,""
157941,25.0521,19.9999,0.00248756,961.825,0.000621891,240.456,""
158742,25.1547,19.9997,0.00246817,963.81,0.000617041,240.952,""
159428,25.11,20.0002,0.00245275,965.496,0.000613188,241.374,""
159962,25.2461,19.9997,0.00244075,966.804,0.000610189,241.701,""
160669,25.208,19.9998,0.00242542,968.524,0.000606355,242.131,""
161371,25.2766,19.9999,0.00241001,970.22,0.000602501,242.555,""
162232,25.2048,19.9996,0.00239218,972.289,0.000598044,243.072,""
163080,25.0996,20,0.00237404,974.309,0.000593509,243.577,""
164014,25.1699,19.9998,0.00235477,976.518,0.000588693,244.13,""
164999,25.2691,19.9997,0.002335,978.827,0.000583749,244.707,""
165768,25.2587,19.9999,0.0023197,980.617,0.000579924,245.154,""
166615,25.2282,19.9998,0.00230286,982.575,0.000575716,245.644,""
167413,25.3739,20.0003,0.00228759,984.407,0.000571897,246.102,""
168059,25.2766,19.9999,0.00227517,985.88,0.000568794,246.47,""
168825,25.3338,19.9999,0.00226141,987.618,0.000565353,246.904,""
169533,25.2576,19.9999,0.00224847,989.213,0.000562119,247.303,""
170197,25.2944,19.9999,0.00223657,990.703,0.000559142,247.676,""
170855,25.3589,19.9999,0.00222498,992.171,0.000556245,248.043,""
171699,25.2486,20.0002,0.00221065,994.043,0.000552663,248.511,""
172643,25.2795,20.0002,0.00219448,996.122,0.000548619,249.03,""
173553,25.2752,19.9996,0.00217898,998.113,0.000544745,249.528,""
174312,25.3112,19.9989,0.00216575,999.761,0.000541437,249.94,""
175199,25.3189,19.9998,0.0021508,1001.68,0.0005377,250.419,""
175877,25.2964,19.9998,0.00213991,1003.13,0.000534977,250.782,""
176564,25.1901,19.9998,0.00212936,1004.6,0.000532341,251.149,""
177206,25.2749,19.9997,0.00211908,1005.96,0.000529771,251.49,""
178153,25.3295,20.0003,0.00210447,1007.96,0.000526117,251.99,""
178901,25.2671,19.9998,0.0020927,1009.53,0.000523175,252.382,""
179594,25.3526,20,0.0020819,1010.98,0.000520474,252.744,""
180398,25.1891,19.9997,0.0020702,1012.65,0.000517549,253.161,""
181266,25.1799,20,0.00205753,1014.44,0.000514382,253.609,""
182481,25.1915,20.0002,0.00204026,1016.93,0.000510066,254.232,""
183163,25.1425,19.9999,0.00203002,1018.31,0.000507504,254.579,""
183807,25.1336,20.0002,0.00202162,1019.62,0.000505404,254.904,""
184477,25.0732,19.9993,0.00201235,1020.97,0.000503087,255.242,""
185680,25.1694,19.9996,0.00199656,1023.38,0.000499141,255.845,""
186430,25.2942,19.9999,0.00198672,1024.87,0.000496681,256.218,""
187116,25.3133,20.0004,0.00197757,1026.23,0.000494392,256.558,""
187676,25.2594,19.9993,0.00197035,1027.34,0.000492588,256.835,""
188611,25.2573,19.9998,0.00195876,1029.18,0.000489689,257.294,""
189514,25.3535,20,0.00194742,1030.94,0.000486856,257.735,""
189997,25.1756,19.9995,0.00194188,1031.88,0.000485469,257.97,""
190806,25.2676,19.9997,0.00193104,1033.45,0.000482761,258.361,""
191356,25.3236,19.9997,0.00192469,1034.51,0.000481172,258.626,""
192180,25.256,19.9999,0.00191487,1036.09,0.000478717,259.022,""
193178,25.2843,20.0004,0.00190318,1037.99,0.000475796,259.498,""
194083,25.3374,19.9998,0.00189278,1039.71,0.000473195,259.928,""
194706,25.2729,20.0001,0.00188564,1040.89,0.00047141,260.222,""
195474,25.3156,19.9998,0.00187674,1042.33,0.000469185,260.583,""
196344,25.3297,19.9996,0.00186821,1043.96,0.000467051,260.99,""
197400,25.348,19.9998,0.00185766,1045.93,0.000464414,261.482,""
198358,25.3612,20,0.00184731,1047.7,0.000461828,261.926,""
199101,25.4138,19.9998,0.00183997,1049.07,0.000459994,262.268,""
199647,25.7908,20.0004,0.00183432,1050.08,0.000458579,262.519,""
200230,26.1468,20.0001,0.00182827,1051.14,0.000457069,262.786,""
200659,26.1347,19.9996,0.00182387,1051.93,0.000455966,262.982,""
201156,26.0587,19.9999,0.00181996,1052.83,0.000454989,263.208,""
201636,26.2762,20.0005,0.00181505,1053.7,0.000453762,263.426,""
202186,26.1353,19.9998,0.0018095,1054.7,0.000452375,263.675,""
202659,25.7136,19.9997,0.00180504,1055.56,0.000451259,263.889,""
203155,25.6359,19.9993,0.00180048,1056.45,0.00045012,264.113,""
203876,25.5912,19.9995,0.0017933,1057.75,0.000448325,264.437,""
204448,25.5688,19.9995,0.0017879,1058.77,0.000446976,264.692,""
204964,25.9167,20.0002,0.00178316,1059.69,0.000445791,264.923,""
205485,25.8058,19.9999,0.00177802,1060.62,0.000444504,265.155,""
205970,25.6469,19.999,0.00177297,1061.48,0.000443242,265.37,""
206514,25.8274,20.0002,0.00176875,1062.44,0.000442187,265.611,""
207056,25.2587,20,0.00176373,1063.4,0.000440933,265.85,""
207585,25.4441,19.9997,0.00175937,1064.33,0.000439842,266.083,""
208101,25.8472,20,0.00175478,1065.24,0.000438695,266.31,""
208633,25.9513,19.9999,0.00175011,1066.17,0.000437528,266.543,""
209139,25.5254,19.9998,0.00174555,1067.05,0.000436389,266.764,""
209789,25.5161,19.9998,0.00173955,1068.19,0.000434888,267.047,""
210339,25.4995,20,0.00173489,1069.14,0.000433722,267.286,""
211128,25.4213,19.9999,0.0017279,1070.51,0.000431975,267.627,""
211831,25.2997,19.9997,0.00172211,1071.72,0.000430529,267.931,""
212456,25.3053,19.9997,0.0017171,1072.8,0.000429274,268.199,""
213119,25.2867,19.9999,0.00171204,1073.93,0.000428011,268.483,""
214019,25.267,19.9998,0.00170471,1075.47,0.000426177,268.868,""
214785,25.302,20.0001,0.00169874,1076.77,0.000424685,269.194,""
215536,25.3256,19.9995,0.00169343,1078.05,0.000423359,269.512,""
216312,25.324,19.9997,0.00168704,1079.36,0.000421761,269.84,""
217261,25.2988,20,0.0016808,1080.96,0.000420199,270.239,""
218034,25.3397,19.9996,0.00167456,1082.25,0.000418641,270.563,""
218803,25.3096,20.0001,0.00166912,1083.54,0.000417281,270.885,""
219839,25.3061,20.0001,0.00166208,1085.27,0.00041552,271.316,""
220488,25.2911,20.0001,0.00165652,1086.34,0.00041413,271.585,""
221030,25.3006,20.0001,0.00165286,1087.24,0.000413216,271.81,""
221694,25.3212,20,0.00164835,1088.33,0.000412089,272.084,""
222318,25.3495,19.9997,0.00164398,1089.36,0.000410995,272.341,""
222919,25.3045,19.9999,0.00163943,1090.35,0.000409858,272.587,""
223633,25.3493,20.0003,0.00163511,1091.52,0.000408776,272.879,""
224397,25.3787,20,0.00162964,1092.77,0.000407411,273.191,""
225636,25.3215,19.9997,0.00162163,1094.78,0.000405409,273.695,""
226698,25.3472,19.9999,0.00161462,1096.5,0.000403655,274.125,""
227529,25.3094,20.0001,0.00160965,1097.84,0.000402411,274.459,""
228185,25.3123,19.9999,0.00160526,1098.89,0.000401314,274.723,""
228939,25.2155,20.0002,0.00160072,1100.1,0.000400181,275.025,""
229736,25.2976,19.9994,0.00159567,1101.37,0.000398918,275.343,""
230684,25.3057,20,0.00158971,1102.88,0.000397428,275.721,""
231947,25.3156,19.9998,0.00158178,1104.89,0.000395446,276.222,""
232669,25.3309,19.9998,0.00157774,1106.03,0.000394434,276.507,""
233664,25.3412,19.9998,0.00157178,1107.6,0.000392946,276.899,""
234434,25.3183,19.9999,0.00156716,1108.8,0.000391791,277.201,""
235218,25.3241,19.9998,0.00156256,1110.03,0.000390641,277.508,""
235882,25.3797,19.9996,0.00155889,1111.07,0.000389723,277.767,""
236773,25.3256,19.9995,0.00155422,1112.45,0.000388555,278.114,""
237698,25.4039,20.0001,0.0015494,1113.89,0.000387351,278.472,""
238601,25.4025,19.9999,0.00154412,1115.29,0.000386029,278.822,""
239625,25.3901,19.9996,0.00153917,1116.86,0.000384793,279.216,""
241210,25.3948,19.9999,0.00153047,1119.3,0.000382617,279.824,""
242004,25.4322,19.9998,0.00152672,1120.51,0.000381679,280.128,""
242968,26.0411,19.9999,0.00152197,1121.98,0.000380493,280.495,""
243548,26.1112,20.0002,0.00151905,1122.86,0.000379763,280.715,""
243963,26.1206,20,0.00151747,1123.49,0.000379368,280.873,""
244522,26.2634,19.9999,0.0015149,1124.34,0.000378724,281.085,""
245165,26.2239,19.9998,0.00151156,1125.31,0.000377891,281.328,""
245845,26.2757,19.9997,0.00150882,1126.34,0.000377206,281.585,""
246566,26.1464,20.0004,0.0015055,1127.43,0.000376375,281.857,""
247319,26.229,20.0006,0.00150231,1128.56,0.000375578,282.14,""
248152,26.1986,19.9992,0.00149814,1129.81,0.000374535,282.452,""
248984,26.1994,19.9998,0.00149402,1131.05,0.000373505,282.763,""
249894,26.2321,19.9999,0.00148949,1132.41,0.000372373,283.103,""
250627,26.1811,20.0003,0.00148626,1133.5,0.000371564,283.375,""
251403,26.2102,19.9997,0.00148263,1134.65,0.000370658,283.663,""
252226,26.221,19.9996,0.00147886,1135.87,0.000369714,283.968,""
253026,26.1922,19.9998,0.00147514,1137.05,0.000368786,284.264,""
253787,26.1971,19.9997,0.00147175,1138.18,0.000367937,284.544,""
254715,26.2352,20.0004,0.00146773,1139.54,0.000366932,284.885,""
255517,26.2314,19.9998,0.00146415,1140.71,0.000366037,285.179,""
256537,26.2268,20.0002,0.00145912,1142.21,0.00036478,285.551,""
257253,26.2303,19.9999,0.00145601,1143.25,0.000364001,285.812,""
257987,26.318,19.9997,0.00145226,1144.32,0.000363064,286.079,""
258637,26.2388,19.9997,0.00144961,1145.26,0.000362402,286.315,""
259228,26.187,19.9998,0.00144678,1146.12,0.000361694,286.529,""
260211,26.2465,19.9987,0.00144234,1147.54,0.000360586,286.884,""
260780,26.2318,20.0007,0.0014399,1148.36,0.000359974,287.089,""
261888,26.1715,20,0.00143539,1149.95,0.000358848,287.487,""
262698,26.2349,20.0002,0.00143218,1151.11,0.000358045,287.778,""
263388,26.2432,19.9999,0.00142937,1152.1,0.000357343,288.024,""
264129,26.3441,19.9996,0.00142643,1153.16,0.000356606,288.289,""
264819,26.3149,19.9991,0.00142339,1154.14,0.000355848,288.535,""
265503,26.2672,20.0001,0.00142081,1155.11,0.000355202,288.778,""
266347,26.2399,19.9987,0.00141722,1156.31,0.000354305,289.077,""
267062,26.3225,20.0002,0.00141473,1157.32,0.000353683,289.331,""
267994,26.3247,19.9997,0.00141141,1158.64,0.000352852,289.66,""
268856,26.3128,19.9989,0.00140803,1159.85,0.000352007,289.963,""
269541,26.3065,19.9998,0.00140484,1160.82,0.00035121,290.204,""
270155,25.957,20,0.00140274,1161.68,0.000350685,290.42,""
270806,25.6425,19.9995,0.00140038,1162.59,0.000350094,290.648,""
271432,25.7298,19.9997,0.0013976,1163.47,0.0003494,290.867,""
272005,25.5945,19.9998,0.00139518,1164.27,0.000348794,291.067,""
272652,25.4607,19.9993,0.00139262,1165.17,0.000348155,291.292,""
273140,25.6885,19.9999,0.00139071,1165.85,0.000347678,291.462,""
273978,25.3809,19.9994,0.00138719,1167.01,0.000346797,291.753,""
274431,25.501,19.9996,0.00138583,1167.64,0.000346458,291.91,""
275072,25.3712,19.9998,0.00138306,1168.53,0.000345765,292.132,""
275901,25.3266,19.9996,0.00137985,1169.67,0.000344964,292.418,""
276586,25.3154,19.9996,0.00137769,1170.62,0.000344422,292.654,""
277347,25.2999,19.9998,0.00137455,1171.66,0.000343638,292.916,""
278108,25.3069,19.9991,0.00137219,1172.71,0.000343047,293.177,""
278885,25.3594,20,0.00136931,1173.77,0.000342326,293.444,""
279997,25.3256,20.0008,0.00136541,1175.29,0.000341352,293.824,""
281105,25.3483,19.9999,0.00136172,1176.81,0.00034043,294.202,""
281728,25.368,19.9995,0.00135949,1177.65,0.000339874,294.413,""
282610,25.358,19.9995,0.00135617,1178.85,0.000339044,294.713,""
283347,25.4376,19.9999,0.00135368,1179.85,0.00033842,294.963,""
284332,25.388,20,0.00135047,1181.18,0.000337618,295.295,""
285104,25.3329,19.9998,0.0013479,1182.22,0.000336974,295.556,""
286051,25.3966,19.9999,0.00134439,1183.5,0.000336096,295.874,""
287085,25.4008,19.9999,0.00134122,1184.89,0.000335304,296.221,""
288712,25.3999,20,0.00133577,1187.06,0.000333942,296.766,""
289511,25.4237,20.0001,0.00133328,1188.13,0.000333321,297.033,""
290192,25.3767,19.9999,0.00133092,1189.04,0.00033273,297.26,""
291179,25.3992,20.0004,0.00132767,1190.35,0.000331916,297.588,""
292010,25.3715,19.9994,0.00132464,1191.45,0.000331161,297.863,""
292625,25.3585,20.0007,0.00132321,1192.27,0.000330802,298.067,""
293532,25.3925,20.0001,0.00132018,1193.46,0.000330045,298.366,""
294538,25.3622,19.9998,0.00131659,1194.79,0.000329147,298.698,""
295373,25.3845,20.0002,0.00131411,1195.89,0.000328529,298.972,""
296156,25.4176,19.9998,0.00131142,1196.92,0.000327855,299.229,""
296906,25.4024,20.0001,0.00130922,1197.9,0.000327306,299.475,""
297616,25.4053,19.9997,0.00130638,1198.83,0.000326595,299.707,""
298603,25.4084,19.9998,0.00130277,1200.12,0.000325693,300.029,""
299729,25.4171,20,0.00129857,1201.58,0.000324643,300.395,""
300409,25.4379,20,0.00129666,1202.46,0.000324165,300.616,""
301498,25.3861,19.9993,0.00129296,1203.87,0.00032324,300.968,""
302399,25.4172,19.9998,0.00129014,1205.04,0.000322535,301.259,""
303050,25.401,19.9997,0.00128861,1205.88,0.000322152,301.469,""
303790,25.4023,19.9999,0.00128595,1206.83,0.000321488,301.707,""
304732,25.4129,19.9998,0.00128252,1208.04,0.000320629,302.01,""
305540,25.3763,19.9998,0.00128011,1209.07,0.000320028,302.268,""
306124,25.4324,19.9999,0.00127808,1209.82,0.000319519,302.455,""
307004,25.4663,19.9996,0.00127499,1210.94,0.000318748,302.736,""
307965,25.433,20.0001,0.001272,1212.17,0.000318001,303.042,""
308759,25.4025,19.9998,0.00126921,1213.18,0.000317303,303.294,""
309447,25.3287,20,0.00126706,1214.05,0.000316764,303.512,""
310250,25.4625,20.0001,0.00126421,1215.07,0.000316052,303.766,""
310986,25.4329,19.9998,0.00126168,1216,0.000315421,303.999,""
312194,25.4141,19.9999,0.00125778,1217.52,0.000314444,304.379,""
313060,25.4407,20.0002,0.0012547,1218.61,0.000313674,304.651,""
314060,25.4158,19.9998,0.00125112,1219.86,0.00031278,304.965,""
314869,25.4614,20,0.00124836,1220.87,0.000312089,305.218,""
315598,25.4161,19.9997,0.00124607,1221.78,0.000311519,305.445,""
316312,25.4929,20,0.00124377,1222.67,0.000310942,305.667,""
316978,25.3721,20.0003,0.0012415,1223.5,0.000310376,305.874,""
[...]
339530,25.4679,19.9997,0.00116595,1250.64,0.000291488,312.661,""
340462,25.5291,20.0001,0.00116282,1251.73,0.000290705,312.932,""
341347,25.5641,19.9999,0.00115998,1252.76,0.000289994,313.189,""
342759,25.681,20.0001,0.00115474,1254.39,0.000288684,313.598,""
343513,25.6005,20.0001,0.00115222,1255.26,0.000288056,313.815,""
344254,25.5929,19.9998,0.00114995,1256.11,0.000287486,314.028,""
345112,25.5813,19.9999,0.00114693,1257.1,0.000286733,314.275,""
346079,25.5315,19.9993,0.00114364,1258.21,0.00028591,314.552,""
346766,25.5993,19.9998,0.00114157,1258.99,0.000285392,314.748,""
347624,25.5901,19.9999,0.00113848,1259.97,0.000284619,314.992,""
348353,25.5253,19.9998,0.00113592,1260.8,0.000283979,315.2,""
349461,25.5889,19.9996,0.00113223,1262.06,0.000283058,315.514,""
350106,25.5372,20.0002,0.00113007,1262.78,0.000282518,315.696,""
350711,25.5867,19.9999,0.00112792,1263.47,0.000281979,315.867,""
351488,25.5814,20,0.00112547,1264.34,0.000281368,316.086,""
352129,25.6755,19.9999,0.00112323,1265.06,0.000280808,316.266,""
352789,25.6562,19.9999,0.00112119,1265.8,0.000280297,316.451,""
353585,25.6999,19.9999,0.00111796,1266.7,0.00027949,316.674,""
354673,25.6045,19.9996,0.00111434,1267.91,0.000278585,316.978,""
355258,25.8368,19.9992,0.00111254,1268.56,0.000278134,317.14,""
356028,25.5433,19.9999,0.00111011,1269.42,0.000277527,317.354,""
356808,25.67,19.9998,0.00110692,1270.28,0.000276731,317.57,""
357553,25.9083,20.0001,0.00110462,1271.11,0.000276155,317.776,""
358257,25.7256,19.9997,0.00110224,1271.88,0.000275559,317.971,""
359041,25.5865,20.0001,0.0010999,1272.75,0.000274974,318.186,""
359688,25.6589,19.9999,0.00109756,1273.46,0.00027439,318.364,""
360416,25.6798,20.0001,0.00109491,1274.25,0.000273729,318.564,""
360944,25.7571,20,0.00109322,1274.83,0.000273305,318.708,""
361405,25.8069,19.9998,0.00109144,1275.34,0.00027286,318.834,""
361967,25.5782,19.9998,0.00108979,1275.95,0.000272448,318.987,""
362775,25.7397,20,0.00108734,1276.83,0.000271835,319.207,""
363382,25.7668,19.9997,0.00108584,1277.49,0.000271461,319.372,""
364151,25.6037,19.9997,0.00108298,1278.32,0.000270744,319.58,""
364805,25.6983,19.9997,0.00108061,1279.03,0.000270152,319.757,""
365748,25.5936,19.9998,0.00107718,1280.05,0.000269295,320.012,""
366736,25.7034,19.9998,0.00107429,1281.11,0.000268573,320.277,""
367466,25.7134,20.0001,0.00107181,1281.89,0.000267953,320.473,""
368456,25.7761,20,0.00106852,1282.95,0.00026713,320.738,""
369652,25.6602,19.9997,0.00106445,1284.23,0.000266112,321.057,""
370314,25.7185,19.9998,0.00106219,1284.93,0.000265547,321.233,""
371147,25.7092,19.9994,0.0010598,1285.82,0.00026495,321.454,""
371935,25.7298,19.9999,0.0010573,1286.65,0.000264325,321.663,""
373113,25.6989,20,0.00105373,1287.89,0.000263433,321.973,""
374073,25.5845,19.9999,0.00105073,1288.9,0.000262683,322.226,""
375169,25.6883,19.9997,0.00104718,1290.05,0.000261796,322.513,""
376528,25.6067,19.9997,0.0010426,1291.47,0.000260649,322.868,""
377152,25.6655,19.9999,0.00104067,1292.12,0.000260167,323.031,""
377955,25.6067,20,0.001038,1292.96,0.000259499,323.239,""
378576,25.6542,20,0.00103628,1293.6,0.000259071,323.401,""
379187,25.7135,20.0001,0.00103408,1294.23,0.00025852,323.559,""
380175,25.6313,19.9998,0.00103166,1295.25,0.000257916,323.814,""
380994,25.6666,20.0003,0.00102855,1296.1,0.000257138,324.025,""
382158,25.5954,19.9998,0.00102454,1297.29,0.000256134,324.323,""
382878,25.5657,19.9999,0.00102224,1298.03,0.00025556,324.508,""
383685,25.6977,19.9999,0.00101965,1298.85,0.000254912,324.714,""
384897,25.747,19.9993,0.0010156,1300.09,0.000253901,325.022,""
385677,25.7341,19.9999,0.00101321,1300.88,0.000253303,325.22,""
386729,25.7417,19.9997,0.00100946,1301.94,0.000252365,325.486,""
387467,25.727,19.9996,0.00100768,1302.69,0.00025192,325.672,""
388143,25.6432,20.0001,0.00100472,1303.37,0.000251179,325.842,""
389393,25.7044,19.9998,0.00100071,1304.62,0.000250176,326.155,""
390165,25.7223,20,0.000998336,1305.39,0.000249584,326.348,""
390948,25.7507,19.9998,0.000995755,1306.17,0.000248939,326.543,""
391944,25.7137,19.9995,0.000992312,1307.16,0.000248078,326.791,""
393055,25.7319,20,0.000989258,1308.26,0.000247314,327.066,""
393862,25.672,19.9999,0.00098648,1309.06,0.00024662,327.265,""
394833,25.7088,20,0.000983429,1310.02,0.000245857,327.504,""
395917,25.7007,19.9998,0.000980062,1311.08,0.000245016,327.77,""
396863,25.7029,19.9995,0.000977048,1312.01,0.000244262,328.002,""
397841,25.711,19.9998,0.000973776,1312.96,0.000243444,328.24,""
399035,25.6924,19.9996,0.00097014,1314.12,0.000242535,328.53,""
400771,25.7075,20.0002,0.000964791,1315.8,0.000241198,328.95,""
402340,25.6264,19.9996,0.000959612,1317.31,0.000239903,329.328,""
403368,25.6629,20,0.00095637,1318.3,0.000239092,329.574,""
404842,25.6608,20.0001,0.000952052,1319.7,0.000238013,329.926,""
405851,25.6481,19.9997,0.000948756,1320.66,0.000237189,330.165,""
406936,25.6497,20,0.000945346,1321.69,0.000236337,330.422,""
407593,25.7292,19.9999,0.000943315,1322.31,0.000235829,330.577,""
408614,25.6699,19.9996,0.000940152,1323.27,0.000235038,330.818,""
409378,25.685,19.9998,0.000937674,1323.99,0.000234419,330.997,""
410206,25.6913,19.9994,0.000935385,1324.76,0.000233846,331.191,""
410772,25.6883,19.9999,0.000933504,1325.29,0.000233376,331.323,""
411550,25.7161,20.0002,0.0009312,1326.02,0.0002328,331.504,""
412274,25.6272,19.9999,0.000929042,1326.69,0.00023226,331.673,""
413029,25.6941,19.9992,0.000926745,1327.39,0.000231686,331.848,""
413888,25.735,19.9997,0.000924433,1328.19,0.000231108,332.047,""
414607,25.7692,20,0.000922314,1328.85,0.000230579,332.213,""
415478,25.6434,20.0007,0.000919393,1329.65,0.000229848,332.413,""
417044,25.6086,19.9998,0.000914772,1331.09,0.000228693,332.772,""
417957,25.5888,19.9998,0.000911505,1331.92,0.000227876,332.981,""
418962,25.592,19.9995,0.000908519,1332.84,0.00022713,333.209,""
419776,25.6309,19.9998,0.000906002,1333.58,0.0002265,333.394,""
420481,25.6811,19.9998,0.000903905,1334.21,0.000225976,333.553,""
421651,25.5738,19.9997,0.000900579,1335.27,0.000225145,333.817,""
422962,25.5807,20.0001,0.000896541,1336.45,0.000224135,334.112,""
423648,25.6318,20.0002,0.000894564,1337.06,0.000223641,334.265,""
424239,25.5973,19.9997,0.000892395,1337.59,0.000223099,334.398,""
424789,25.5509,19.9999,0.000891054,1338.08,0.000222763,334.52,""
425676,25.5773,19.9994,0.000888275,1338.87,0.000222069,334.717,""
426547,25.6105,19.9999,0.000885615,1339.64,0.000221404,334.91,""
427246,25.5778,20.0003,0.000883451,1340.26,0.000220863,335.065,""
428071,25.6114,19.9998,0.000881183,1340.99,0.000220296,335.247,""
428701,25.499,19.9997,0.000879503,1341.54,0.000219876,335.386,""
429847,25.5581,19.9998,0.000875703,1342.55,0.000218926,335.637,""
430738,25.7593,19.9998,0.000873053,1343.33,0.000218263,335.832,""
431989,25.6738,20,0.000869186,1344.42,0.000217296,336.104,""
432785,25.5471,19.9999,0.000867016,1345.11,0.000216754,336.277,""
433441,25.6164,20.0002,0.000865396,1345.68,0.000216349,336.419,""
434487,25.5987,19.9997,0.000861802,1346.58,0.00021545,336.645,""
435193,25.5932,20.0002,0.000859788,1347.19,0.000214947,336.797,""
435773,25.521,19.9999,0.000858285,1347.69,0.000214571,336.921,""
436397,25.687,20,0.000856256,1348.22,0.000214064,337.055,""
437339,25.4845,20.0003,0.000853425,1349.03,0.000213356,337.256,""
438010,25.5769,19.9996,0.000851749,1349.6,0.000212937,337.399,""
438660,25.6212,19.9997,0.000849671,1350.15,0.000212418,337.538,""
439735,25.5507,20,0.000846166,1351.06,0.000211541,337.765,""
440530,25.4612,19.9997,0.00084381,1351.73,0.000210953,337.933,""
441187,25.709,20.0004,0.000841677,1352.29,0.000210419,338.072,""
441832,25.5804,19.9994,0.000839614,1352.83,0.000209903,338.208,""
442470,25.6712,19.9998,0.000838167,1353.37,0.000209542,338.341,""
443366,25.6371,20.0001,0.000835632,1354.12,0.000208908,338.529,""
444107,25.6994,19.9998,0.00083339,1354.73,0.000208347,338.683,""
444682,25.6674,19.9999,0.000831941,1355.21,0.000207985,338.803,""
445308,25.635,20,0.000829867,1355.73,0.000207467,338.933,""
446217,25.5207,19.9996,0.000827554,1356.49,0.000206888,339.121,""
447305,25.6017,20,0.000824571,1357.38,0.000206143,339.346,""
448206,25.7036,19.9996,0.000822141,1358.13,0.000205535,339.532,""
449123,25.6606,19.9998,0.000819599,1358.88,0.0002049,339.72,""
449753,25.7541,19.9999,0.000818187,1359.4,0.000204547,339.849,""
450494,25.6309,20,0.000815985,1360,0.000203996,340,""
451246,25.612,19.9998,0.000813868,1360.61,0.000203467,340.153,""
452198,25.6292,19.9999,0.000811464,1361.39,0.000202866,340.347,""
452699,25.7276,19.9996,0.000809935,1361.79,0.000202484,340.448,""
453323,25.6608,19.9999,0.000808285,1362.3,0.000202071,340.575,""
453952,25.5846,20,0.00080655,1362.81,0.000201637,340.702,""
454579,25.6564,19.9999,0.000805015,1363.31,0.000201254,340.828,""
455132,25.573,19.9998,0.00080374,1363.76,0.000200935,340.939,""
455824,25.6701,19.9997,0.000801746,1364.31,0.000200436,341.078,""
456727,25.7486,20.0001,0.000799605,1365.03,0.000199901,341.259,""
457776,25.7705,19.9998,0.000796759,1365.87,0.00019919,341.468,""
458604,25.6547,19.9999,0.000794736,1366.53,0.000198684,341.633,""
459441,25.7572,19.9997,0.000792484,1367.2,0.000198121,341.799,""
460286,25.7016,19.9998,0.000790785,1367.86,0.000197696,341.966,""
461317,25.7366,19.9996,0.000788087,1368.68,0.000197022,342.169,""
462327,25.643,19.9999,0.000785706,1369.47,0.000196426,342.368,""
463450,25.6803,19.9996,0.00078274,1370.35,0.000195685,342.588,""
464221,25.6367,19.9999,0.000781007,1370.96,0.000195252,342.739,""
465472,25.6277,19.9997,0.000777561,1371.93,0.00019439,342.983,""
466770,25.595,20.0002,0.000774045,1372.94,0.000193511,343.235,""
467617,25.6108,19.9989,0.000772172,1373.59,0.000193043,343.398,""
468493,25.5544,19.9998,0.000769916,1374.27,0.000192479,343.567,""
469302,25.5647,19.9999,0.000767902,1374.89,0.000191976,343.723,""
470164,25.5929,20.0002,0.000766292,1375.55,0.000191573,343.888,""
471086,25.5976,20.0001,0.000763821,1376.26,0.000190955,344.064,""
471962,25.6524,20,0.000761559,1376.93,0.00019039,344.231,""
472643,25.6284,20.0001,0.00075995,1377.44,0.000189988,344.361,""
473327,25.5952,20.0002,0.000758218,1377.96,0.000189554,344.491,""
474345,25.6286,19.9998,0.000755952,1378.73,0.000188988,344.684,""
475300,25.5937,19.9999,0.000753963,1379.45,0.000188491,344.864,""
476310,25.6566,20,0.000751593,1380.22,0.000187898,345.054,""
477386,25.6255,20.0001,0.00074912,1381.02,0.00018728,345.256,""
478226,25.6916,20.0001,0.000746949,1381.65,0.000186737,345.413,""
479277,25.7039,19.9999,0.000744196,1382.44,0.000186049,345.609,""
480136,25.6909,20,0.000742031,1383.07,0.000185508,345.768,""
481904,25.6916,20,0.000738066,1384.38,0.000184516,346.096,""
482875,25.6588,20,0.000735617,1385.1,0.000183904,346.274,""
483627,25.6724,20.0001,0.000734026,1385.65,0.000183507,346.413,""
484470,25.6658,19.9996,0.000731796,1386.27,0.000182949,346.567,""
485914,25.676,20,0.000728382,1387.32,0.000182096,346.831,""
486764,25.7101,20,0.000726281,1387.94,0.00018157,346.985,""
487691,25.6301,19.9999,0.000723985,1388.61,0.000180996,347.153,""
488414,25.6209,19.9998,0.000722247,1389.14,0.000180562,347.284,""
489336,25.6979,20.0001,0.000720659,1389.8,0.000180165,347.45,""
490027,25.7073,20.0004,0.000718784,1390.3,0.000179696,347.575,""
490750,25.7476,19.9998,0.000717145,1390.82,0.000179286,347.705,""
491421,25.6754,19.9995,0.000715402,1391.3,0.000178851,347.825,""
492208,25.5492,19.9994,0.000713486,1391.86,0.000178371,347.965,""
493127,25.5921,19.9991,0.000711169,1392.52,0.000177792,348.129,""
493893,25.4839,20.0005,0.00070945,1393.06,0.000177363,348.265,""
494688,25.5485,20.0002,0.000707533,1393.62,0.000176883,348.406,""
495730,25.5619,19.9996,0.0007052,1394.36,0.0001763,348.59,""
496536,25.5221,20,0.000703694,1394.93,0.000175924,348.732,""
497285,25.4686,19.9999,0.000701826,1395.45,0.000175456,348.863,""
498035,25.5759,19.9999,0.00070004,1395.98,0.00017501,348.995,""
498776,25.5815,20,0.000698604,1396.5,0.000174651,349.124,""
499664,25.6726,19.9999,0.00069673,1397.12,0.000174183,349.279,""
500461,25.5904,20.0001,0.000694783,1397.67,0.000173696,349.418,""
501293,25.5937,20.0003,0.00069292,1398.25,0.00017323,349.562,""
502320,25.5677,19.9996,0.000690426,1398.96,0.000172606,349.74,""
502828,26.3841,20.0009,0.000689421,1399.31,0.000172355,349.827,""
503642,26.4922,20.0001,0.000687088,1399.87,0.000171772,349.967,""
504453,26.5054,19.9997,0.000685775,1400.43,0.000171444,350.106,""
505264,26.5255,19.9995,0.000684395,1400.98,0.000171099,350.245,""
505822,26.4517,20.0008,0.000682528,1401.36,0.000170632,350.341,""
506825,26.3674,19.9998,0.000680241,1402.05,0.00017006,350.512,""
507451,26.3932,19.9997,0.000679013,1402.47,0.000169753,350.618,""
508253,26.3965,20,0.000677226,1403.02,0.000169307,350.754,""
509125,26.4211,20,0.000675286,1403.61,0.000168821,350.901,""
509821,26.2531,20.0006,0.000673546,1404.07,0.000168386,351.019,""
510638,26.3511,20.0002,0.000671707,1404.62,0.000167927,351.156,""
511711,26.3502,20,0.000668755,1405.34,0.000167189,351.336,""
512680,26.4769,20,0.000666323,1405.99,0.000166581,351.498,""
513348,26.4741,20,0.000664742,1406.44,0.000166186,351.609,""
514081,26.4011,19.9992,0.000663298,1406.92,0.000165824,351.73,""
514973,26.4745,19.9997,0.000661196,1407.51,0.000165299,351.878,""
515717,26.4426,20.0005,0.000659756,1408,0.000164939,352.001,""
516607,26.3898,20.0004,0.000657373,1408.59,0.000164343,352.147,""
517043,26.4143,19.9998,0.000656571,1408.88,0.000164143,352.219,""
517842,26.408,20,0.000654831,1409.4,0.000163708,352.35,""
519018,26.4251,19.9996,0.000651832,1410.17,0.000162958,352.542,""
520074,26.441,20,0.000649602,1410.86,0.000162401,352.714,""
520856,26.3692,19.9998,0.000648078,1411.36,0.000162019,352.841,""
521841,26.3765,20.0003,0.000645636,1412,0.000161409,353,""
522492,26.4522,19.9998,0.000643951,1412.42,0.000160988,353.105,""
523128,26.5168,19.9995,0.000642467,1412.83,0.000160617,353.207,""
523920,26.3919,19.9997,0.000640853,1413.34,0.000160213,353.334,""
524692,26.5105,19.9998,0.000639635,1413.83,0.000159909,353.458,""
525620,26.4343,20,0.000637058,1414.42,0.000159265,353.606,""
525960,26.486,19.9995,0.00063684,1414.64,0.00015921,353.66,""
526776,26.4878,20.0003,0.000634421,1415.16,0.000158605,353.79,""
527451,26.428,20.0003,0.000633532,1415.59,0.000158383,353.897,""
528276,26.5963,19.9995,0.000631456,1416.11,0.000157864,354.027,""
528805,26.5677,20.0004,0.000630603,1416.44,0.000157651,354.111,""
529327,26.597,19.9993,0.000629239,1416.77,0.00015731,354.193,""
529832,26.527,19.9999,0.000628509,1417.09,0.000157127,354.272,""
530588,26.537,20,0.000626561,1417.56,0.00015664,354.391,""
531709,26.5256,19.9998,0.000624529,1418.26,0.000156132,354.566,""
532781,26.5706,19.9998,0.000622104,1418.93,0.000155526,354.733,""
533819,26.5688,20.0001,0.000619825,1419.58,0.000154956,354.894,""
534536,26.5482,20.0002,0.00061824,1420.02,0.00015456,355.005,""
535600,26.6206,19.9999,0.000616191,1420.68,0.000154048,355.169,""
536434,25.972,19.999,0.0006146,1421.19,0.00015365,355.298,""
537083,25.6389,19.9993,0.000613396,1421.59,0.000153349,355.397,""
538125,25.5824,19.9997,0.000611031,1422.23,0.000152758,355.557,""
538872,25.4942,19.9999,0.000609687,1422.68,0.000152422,355.671,""
539355,25.4231,19.9996,0.000608541,1422.98,0.000152135,355.744,""
539919,25.4721,20,0.000607282,1423.32,0.000151821,355.83,""
540764,25.5642,19.9997,0.000605842,1423.83,0.000151461,355.958,""
541549,25.4072,19.9996,0.000604115,1424.31,0.000151029,356.077,""
542321,25.2631,19.9995,0.000602989,1424.77,0.000150747,356.194,""
543077,25.2893,19.9999,0.000601352,1425.23,0.000150338,356.307,""
544207,25.3451,20,0.000599165,1425.91,0.000149791,356.477,""
545137,25.2069,20,0.000597566,1426.46,0.000149391,356.616,""
545998,25.3002,19.9999,0.000595801,1426.98,0.00014895,356.744,""
546754,25.4048,20.0002,0.00059464,1427.43,0.00014866,356.857,""
547303,25.4558,20,0.000593421,1427.75,0.000148355,356.938,""
548248,25.3453,19.9998,0.000591813,1428.31,0.000147953,357.078,""
549156,25.4262,20.0001,0.00059016,1428.85,0.00014754,357.213,""
549981,25.3072,19.9995,0.000588708,1429.34,0.000147177,357.334,""
550530,25.3968,20.0001,0.000587672,1429.66,0.000146918,357.415,""
551492,25.4216,19.9999,0.000585982,1430.22,0.000146495,357.556,""
552054,25.3797,19.9997,0.0005849,1430.55,0.000146225,357.638,""
552721,25.107,19.9996,0.000583628,1430.94,0.000145907,357.736,""
553624,25.0753,19.9996,0.000581817,1431.47,0.000145454,357.867,""
554285,25.0852,19.9997,0.000580866,1431.85,0.000145216,357.963,""
555645,25.0376,19.9998,0.000578211,1432.64,0.000144553,358.16,""
556568,25.0285,20.0001,0.000576808,1433.17,0.000144202,358.294,""
557736,25.0075,20.0002,0.000574429,1433.85,0.000143607,358.462,""
558689,25.067,19.9996,0.000572926,1434.39,0.000143232,358.598,""
559286,25.086,20,0.00057195,1434.74,0.000142988,358.684,""
560814,25.0394,19.9998,0.000569318,1435.61,0.00014233,358.902,""
561799,25.0363,20,0.00056743,1436.17,0.000141857,359.042,""
562999,25.0002,19.9999,0.000565061,1436.85,0.000141265,359.211,""
563916,24.981,19.9999,0.000563751,1437.36,0.000140938,359.341,""
565229,25.0108,19.9998,0.000561379,1438.1,0.000140345,359.526,""
566349,24.9982,20,0.000559301,1438.73,0.000139825,359.682,""
567150,24.9484,19.9996,0.000557735,1439.18,0.000139434,359.794,""
567960,24.9146,19.9998,0.000556479,1439.63,0.00013912,359.907,""
568850,24.9451,19.9999,0.000555192,1440.12,0.000138798,360.031,""
570017,24.9591,19.9999,0.000553054,1440.77,0.000138263,360.193,""
570959,24.9695,20,0.000551269,1441.29,0.000137817,360.323,""
571630,24.9665,20.0001,0.000550017,1441.66,0.000137504,360.415,""
572585,24.9438,19.9999,0.000548382,1442.18,0.000137096,360.546,""
574018,24.9637,19.9998,0.000545835,1442.97,0.000136459,360.742,""
575303,24.9271,19.9998,0.000543143,1443.67,0.000135786,360.917,""
576539,24.9634,19.9998,0.000541094,1444.34,0.000135274,361.085,""
577421,24.9207,20.0015,0.000539719,1444.81,0.00013493,361.204,""
578487,24.9173,19.9994,0.000537264,1445.39,0.000134316,361.347,""
579145,24.9093,19.9995,0.00053645,1445.74,0.000134113,361.435,""
580151,24.9356,19.9997,0.000534746,1446.28,0.000133686,361.57,""
581028,24.9514,19.9994,0.000532912,1446.75,0.000133228,361.687,""
582355,24.932,19.9997,0.000530589,1447.45,0.000132647,361.864,""
583299,24.9682,19.9999,0.000529264,1447.95,0.000132316,361.989,""
584074,25.5441,20,0.000527811,1448.36,0.000131953,362.091,""
585047,25.6091,19.9998,0.000526546,1448.88,0.000131637,362.219,""
586061,25.8059,19.9995,0.000525081,1449.41,0.00013127,362.353,""
587097,25.6502,19.9997,0.000523647,1449.95,0.000130912,362.488,""
587980,25.806,19.9998,0.000521953,1450.42,0.000130488,362.604,""
588803,25.6544,19.9999,0.000520625,1450.84,0.000130156,362.711,""
589379,25.7306,20.0008,0.000519221,1451.14,0.000129805,362.786,""
590201,25.8223,19.9999,0.00051743,1451.57,0.000129358,362.892,""
590808,25.7742,19.9997,0.00051667,1451.88,0.000129167,362.971,""
591479,25.731,20.0004,0.000515499,1452.23,0.000128875,363.058,""
592472,25.8753,19.9998,0.000513546,1452.74,0.000128386,363.185,""
593137,25.8765,20,0.000512499,1453.08,0.000128125,363.271,""
594088,25.8981,19.9998,0.000510719,1453.57,0.00012768,363.392,""
594566,25.9898,19.9998,0.000510002,1453.81,0.000127501,363.453,""
595158,25.9511,20.0006,0.000508409,1454.11,0.000127102,363.529,""
596201,25.9795,20.0001,0.000506754,1454.64,0.000126688,363.661,""
596866,25.7491,19.9995,0.000505445,1454.98,0.000126361,363.745,""
597687,25.927,19.9989,0.000504132,1455.39,0.000126033,363.849,""
598749,25.9486,20.0003,0.000502406,1455.93,0.000125601,363.982,""
599370,26.0188,20.0001,0.000500968,1456.24,0.000125242,364.06,""
600121,25.9068,20,0.000499856,1456.62,0.000124964,364.154,""
601077,25.9636,20.0001,0.000498216,1457.09,0.000124554,364.273,""
601937,25.9163,19.9996,0.000496416,1457.52,0.000124104,364.38,""
602670,25.9371,19.9999,0.000495116,1457.88,0.000123779,364.471,""
602961,25.9682,19.9997,0.000494892,1458.03,0.000123723,364.507,""
602962,25.97,19.9997,NaN,NaN,NaN,NaN,"Ampoule removed"
602962,25.9721,19.9997,NaN,NaN,NaN,NaN,""