File: data/JAA_CAL347.csv
Summary
Name,"JAA_CAL347.rslt"
Start time,2023 Jun 06 - 12:09
End time,2023 Jun 13 - 12:49
Operator,"JAA"
Results file path,"C:\Users\ge65ley\Desktop\Calorimetry_Results\AXD\Results_files\JAA_CAL347.rslt"
General Experiment Info
Bath temperature,20Â°C
,Sample - 25336:3
Total mass,6g
Name,"JAA_CAL347"
,Component - OPC
Mass,4g
Name,"OPC"
ID,"Karlstadt CEM I 52.5N 12.10.21"

"Time","Temperature [AmbientT(Therm3T)]","Temperature [Temperature]","Heat flow [Signal]","Heat [Signal]","Normalized heat flow [Signal]","Normalized heat [Signal]","Time markers"
-4334.72,25.5956,20.0001,NaN,NaN,NaN,NaN,""
-4334.67,25.5957,20.0001,8.94008e-07,NaN,2.23502e-07,NaN,""
-4309.38,25.6919,20,9.27563e-07,NaN,2.31891e-07,NaN,""
-4262.86,25.6617,19.9999,9.89281e-07,NaN,2.4732e-07,NaN,""
-4225.28,25.6451,19.9998,8.62305e-07,NaN,2.15576e-07,NaN,""
-4164.04,25.6584,19.9997,4.71023e-07,NaN,1.17756e-07,NaN,""
-4156.59,25.6601,19.9996,5.16231e-07,NaN,1.29058e-07,NaN,""
-4124.29,25.6671,20.0003,7.1212e-07,NaN,1.7803e-07,NaN,""
-4100.39,25.6723,20.0001,7.34633e-07,NaN,1.83658e-07,NaN,""
-4077.86,25.6571,19.9999,6.97118e-07,NaN,1.7428e-07,NaN,""
-4071.17,25.6514,19.9999,6.85989e-07,NaN,1.71497e-07,NaN,""
-4065.2,25.6464,19.9998,5.39429e-07,NaN,1.34857e-07,NaN,""
-4059.24,25.6414,19.9998,3.92869e-07,NaN,9.82173e-08,NaN,""
-4025.27,25.6539,19.9997,3.0356e-07,NaN,7.589e-08,NaN,""
-4002.9,25.8853,19.9997,2.44764e-07,NaN,6.1191e-08,NaN,""
-3964.35,25.7213,19.9996,1.43399e-07,NaN,3.58499e-08,NaN,""
-3944.14,25.7297,19.9998,9.02653e-08,NaN,2.25663e-08,NaN,""
-3917.31,25.7814,20,-1.95762e-07,NaN,-4.89405e-08,NaN,""
-3906.17,25.8029,20.0001,-3.41459e-08,NaN,-8.53648e-09,NaN,""
-3892.22,25.8298,20.0001,-1.14401e-07,NaN,-2.86002e-08,NaN,""
-3878.26,25.8153,20.0001,-1.94656e-07,NaN,-4.8664e-08,NaN,""
-3840.67,25.7322,20.0001,-3.14731e-07,NaN,-7.86828e-08,NaN,""
-3835.05,25.7292,20.0001,-1.52246e-07,NaN,-3.80614e-08,NaN,""
-3829.44,25.7315,20,1.02398e-08,NaN,2.55994e-09,NaN,""
-3796.71,25.7445,20,-5.72789e-08,NaN,-1.43197e-08,NaN,""
-3772.97,25.7539,20,-9.89217e-08,NaN,-2.47304e-08,NaN,""
-3755.4,25.7786,20,-3.90764e-08,NaN,-9.7691e-09,NaN,""
-3742.23,25.8141,20.0001,1.31138e-07,NaN,3.27845e-08,NaN,""
-3728.92,25.85,20.0001,-1.27786e-08,NaN,-3.19464e-09,NaN,""
-3713.33,25.892,20.0001,9.06862e-08,NaN,2.26716e-08,NaN,""
-3706.44,25.8893,20.0001,-6.50415e-09,NaN,-1.62604e-09,NaN,""
-3699.55,25.8814,20.0002,-1.03695e-07,NaN,-2.59236e-08,NaN,""
-3673.98,25.8519,20.0002,5.34282e-08,NaN,1.3357e-08,NaN,""
-3660.49,25.8363,20.0003,-9.87488e-08,NaN,-2.46872e-08,NaN,""
-3648.43,25.8224,20.0002,-2.06369e-07,NaN,-5.15922e-08,NaN,""
-3625.8,25.7963,20.0001,-1.87791e-08,NaN,-4.69478e-09,NaN,""
-3612.62,25.7811,20.0001,-2.39629e-07,NaN,-5.99073e-08,NaN,""
-3602.02,25.7689,20.0001,-2.55794e-07,NaN,-6.39486e-08,NaN,""
-3591.91,25.7651,20,-2.66889e-07,NaN,-6.67223e-08,NaN,""
-3544.05,25.7471,19.9999,8.82985e-08,NaN,2.20746e-08,NaN,""
-3504.88,25.7325,19.9998,-2.87961e-07,NaN,-7.19903e-08,NaN,""
-3463.89,25.7171,19.9996,-2.05846e-08,NaN,-5.14615e-09,NaN,""
-3443.17,25.7094,19.9996,-2.69559e-07,NaN,-6.73898e-08,NaN,""
-3442.48,25.7091,19.9996,-2.6428e-07,NaN,-6.607e-08,NaN,""
-3430.98,25.7048,19.9997,-1.76317e-07,NaN,-4.40791e-08,NaN,""
-3408.41,25.6963,20,-4.63158e-07,NaN,-1.1579e-07,NaN,""
-3402.23,25.694,20,-3.87843e-07,NaN,-9.69608e-08,NaN,""
-3396.05,25.6917,20,-3.12528e-07,NaN,-7.81321e-08,NaN,""
-3364.47,25.6799,19.9999,-4.98508e-07,NaN,-1.24627e-07,NaN,""
-3340.71,25.671,19.9998,-8.81358e-07,NaN,-2.20339e-07,NaN,""
-3330.35,25.6671,19.9998,-8.71571e-07,NaN,-2.17893e-07,NaN,""
-3321.36,25.7198,19.9998,-8.63087e-07,NaN,-2.15772e-07,NaN,""
-3312.37,25.7725,19.9997,-8.54603e-07,NaN,-2.13651e-07,NaN,""
-3292.3,25.6094,19.9996,-8.35658e-07,NaN,-2.08915e-07,NaN,""
-3281.99,25.6622,19.9996,-6.43212e-07,NaN,-1.60803e-07,NaN,""
-3263.86,25.7685,19.9995,-3.0468e-07,NaN,-7.61701e-08,NaN,""
-3250.71,25.7712,19.9994,-2.85917e-07,NaN,-7.14793e-08,NaN,""
-3237.56,25.7734,19.9995,-2.67154e-07,NaN,-6.67885e-08,NaN,""
-3193.16,25.7812,20,-8.92118e-08,NaN,-2.23029e-08,NaN,""
-3190.79,25.7816,20,-7.97278e-08,NaN,-1.99319e-08,NaN,""
-3185.09,25.7826,20,-1.617e-07,NaN,-4.0425e-08,NaN,""
-3179.43,25.7792,20,-2.41908e-07,NaN,-6.0477e-08,NaN,""
-3143.91,25.7578,20,-4.74829e-08,NaN,-1.18707e-08,NaN,""
-3121.22,25.7441,20,-3.05387e-07,NaN,-7.63467e-08,NaN,""
-3104.35,25.7339,20,2.87918e-08,NaN,7.19794e-09,NaN,""
-3094.42,25.7279,20,-2.20112e-07,NaN,-5.50279e-08,NaN,""
-3079.24,25.7188,20,6.70535e-08,NaN,1.67634e-08,NaN,""
-3062.43,25.7086,20,-7.34512e-08,NaN,-1.83628e-08,NaN,""
-3051.08,25.7018,20,-2.66696e-08,NaN,-6.66739e-09,NaN,""
-3043.47,25.6972,20,1.06837e-07,NaN,2.67093e-08,NaN,""
-3034.19,25.6964,20,4.51909e-08,NaN,1.12977e-08,NaN,""
-3024.9,25.6966,20,-1.64555e-08,NaN,-4.11387e-09,NaN,""
-2990.77,25.6971,20,2.77487e-07,NaN,6.93718e-08,NaN,""
-2957.57,25.6976,20,-1.29596e-07,NaN,-3.2399e-08,NaN,""
-2943.67,25.6978,20,3.07509e-08,NaN,7.68773e-09,NaN,""
-2906.79,25.6984,20,-5.23019e-09,NaN,-1.30755e-09,NaN,""
-2901.7,25.6985,20,3.0146e-08,NaN,7.53651e-09,NaN,""
-2890.32,25.6987,19.9999,1.09191e-07,NaN,2.72977e-08,NaN,""
-2880.12,25.6884,19.9997,4.77841e-08,NaN,1.1946e-08,NaN,""
-2869.74,25.6779,19.9996,-9.89497e-08,NaN,-2.47374e-08,NaN,""
-2853.01,25.661,19.9994,6.90142e-09,NaN,1.72536e-09,NaN,""
-2841.81,25.6498,19.9994,2.04446e-08,NaN,5.11114e-09,NaN,""
-2830.81,25.6387,19.9995,-2.40153e-08,NaN,-6.00383e-09,NaN,""
-2820.19,25.6734,19.9995,-1.40994e-08,NaN,-3.52484e-09,NaN,""
-2805.88,25.7202,19.9995,5.60498e-08,NaN,1.40124e-08,NaN,""
-2778.94,25.8084,19.9997,-4.99241e-07,NaN,-1.2481e-07,NaN,""
-2770.56,25.7994,19.9997,-4.46845e-07,NaN,-1.11711e-07,NaN,""
-2762.17,25.7707,19.9997,-3.94449e-07,NaN,-9.86122e-08,NaN,""
-2729.91,25.6605,19.9998,-7.01405e-07,NaN,-1.75351e-07,NaN,""
-2702.05,25.681,19.9998,-5.74996e-07,NaN,-1.43749e-07,NaN,""
-2674.96,25.76,19.9997,-4.52068e-07,NaN,-1.13017e-07,NaN,""
-2637.99,25.7742,19.9995,-2.19873e-07,NaN,-5.49683e-08,NaN,""
-2599.01,25.7891,19.9997,9.67372e-08,NaN,2.41843e-08,NaN,""
-2560.03,25.804,19.9999,1.98236e-07,NaN,4.95589e-08,NaN,""
-2556.25,25.8055,19.9999,1.8376e-07,NaN,4.594e-08,NaN,""
-2534.67,25.746,20,1.00962e-07,NaN,2.52405e-08,NaN,""
-2508.99,25.6752,19.9999,NaN,NaN,NaN,NaN,""
-2461,25.786,19.9996,NaN,NaN,NaN,NaN,""
-2429.36,25.7445,19.9998,NaN,NaN,NaN,NaN,""
-2415.78,25.694,19.9999,NaN,NaN,NaN,NaN,""
-2378.26,25.6965,20,NaN,NaN,NaN,NaN,""
-2333.42,25.6995,20,NaN,NaN,NaN,NaN,""
-2277.78,25.7736,19.9999,NaN,NaN,NaN,NaN,""
-2252.19,25.7473,19.9999,NaN,NaN,NaN,NaN,""
-2226.59,25.721,19.9998,NaN,NaN,NaN,NaN,""
-2208.72,25.8817,19.9998,NaN,NaN,NaN,NaN,""
-2183.33,25.7313,19.9997,NaN,NaN,NaN,NaN,""
-2144.3,25.7274,19.9999,NaN,NaN,NaN,NaN,""
-2115.23,25.7244,20.0001,NaN,NaN,NaN,NaN,""
-1948,25.7074,19.9998,NaN,NaN,NaN,NaN,""
-1871.32,25.7176,19.9999,NaN,NaN,NaN,NaN,""
-1794.64,25.731,20,NaN,NaN,NaN,NaN,""
-1767.19,25.7358,20.0005,NaN,NaN,NaN,NaN,""
-1737.17,25.7411,19.9998,NaN,NaN,NaN,NaN,""
-1667.6,25.7532,20,NaN,NaN,NaN,NaN,""
-1638.56,25.7402,19.9999,NaN,NaN,NaN,NaN,""
-1609.52,25.7249,19.9998,NaN,NaN,NaN,NaN,""
-1561.72,25.6995,20.0003,NaN,NaN,NaN,NaN,""
-1512.44,25.6734,19.9998,NaN,NaN,NaN,NaN,""
-1458.06,25.7184,19.9998,NaN,NaN,NaN,NaN,""
-1423.63,25.7619,19.9998,NaN,NaN,NaN,NaN,""
-1373.49,25.735,19.9998,NaN,NaN,NaN,NaN,""
-1323.34,25.7126,19.9998,NaN,NaN,NaN,NaN,""
-1277.89,25.7547,19.9997,NaN,NaN,NaN,NaN,""
-1253.65,25.7493,19.9999,NaN,NaN,NaN,NaN,""
-1229.4,25.6446,20.0001,NaN,NaN,NaN,NaN,""
-1213.24,25.6639,20,NaN,NaN,NaN,NaN,""
-1193.87,25.709,19.9998,NaN,NaN,NaN,NaN,""
-1168.38,25.6974,19.9997,NaN,NaN,NaN,NaN,""
-1119.92,25.6751,19.9997,NaN,NaN,NaN,NaN,""
-1034.14,25.7287,19.9998,NaN,NaN,NaN,NaN,""
-933.492,25.7916,20,NaN,NaN,NaN,NaN,""
-868.02,25.7539,20,NaN,NaN,NaN,NaN,""
-830.329,25.8287,20.0001,NaN,NaN,NaN,NaN,""
-797.751,25.8514,20,NaN,NaN,NaN,NaN,""
-770.869,25.6839,19.9999,NaN,NaN,NaN,NaN,""
-712.762,25.799,19.9998,NaN,NaN,NaN,NaN,""
-669.751,25.7837,19.9997,NaN,NaN,NaN,NaN,""
-626.74,25.7685,20,NaN,NaN,NaN,NaN,""
-595.404,25.7497,20,NaN,NaN,NaN,NaN,""
-533.216,25.7124,19.9998,NaN,NaN,NaN,NaN,""
-511.004,25.7291,20.0002,NaN,NaN,NaN,NaN,""
-488.793,25.7492,20.0006,NaN,NaN,NaN,NaN,""
-465.946,25.7698,20.0008,NaN,NaN,NaN,NaN,""
-443.336,25.6902,20.0011,NaN,NaN,NaN,NaN,""
-429.524,25.7067,20.0008,NaN,NaN,NaN,NaN,""
-410.591,25.7802,20.0004,NaN,NaN,NaN,NaN,""
-394.006,25.7884,20.0005,NaN,NaN,NaN,NaN,""
-367.451,25.7577,20.0008,NaN,NaN,NaN,NaN,""
-335.832,25.7293,20.0007,NaN,NaN,NaN,NaN,""
-287.25,25.738,20.0006,NaN,NaN,NaN,NaN,""
-242.534,25.7306,20.0004,NaN,NaN,NaN,NaN,""
-191.446,25.6605,20.0001,NaN,NaN,NaN,NaN,""
-177.747,25.6489,20.0003,NaN,NaN,NaN,NaN,""
-164.048,25.668,20.0006,NaN,NaN,NaN,NaN,""
-133.892,25.7101,19.9999,NaN,NaN,NaN,NaN,""
-116.865,25.7116,19.9999,NaN,NaN,NaN,NaN,""
-84.9968,25.7144,20.0002,NaN,NaN,NaN,NaN,""
-44.0436,25.718,19.9998,NaN,NaN,NaN,NaN,""
-35.8132,25.7187,19.9999,NaN,NaN,NaN,NaN,""
-14.2155,25.8359,19.9999,NaN,NaN,NaN,NaN,""
-2.77801,25.5846,19.9999,NaN,NaN,NaN,NaN,""
23.6185,25.644,20,NaN,NaN,NaN,NaN,""
46.2469,25.8172,20,NaN,NaN,NaN,NaN,""
68.8753,25.9904,19.9999,NaN,NaN,NaN,NaN,""
93.2054,25.8456,19.9998,NaN,NaN,NaN,NaN,""
113.495,25.767,20,NaN,NaN,NaN,NaN,""
143.804,25.9029,20.0003,NaN,NaN,NaN,NaN,""
169.907,25.8538,20.0002,NaN,NaN,NaN,NaN,""
203.32,25.7909,20,NaN,NaN,NaN,NaN,""
239.244,25.6626,20.0001,NaN,NaN,NaN,NaN,""
257.521,25.6251,20.0001,NaN,NaN,NaN,NaN,""
283.034,25.7222,20.0002,NaN,NaN,NaN,NaN,""
298.522,26.033,20.0003,NaN,NaN,NaN,NaN,""
311.394,25.9636,20.0003,NaN,NaN,NaN,NaN,""
329.187,25.8677,19.9998,NaN,NaN,NaN,NaN,""
355.08,25.7598,19.9999,NaN,NaN,NaN,NaN,""
391.25,25.8045,20.0001,NaN,NaN,NaN,NaN,""
421.106,25.8217,20.0001,NaN,NaN,NaN,NaN,""
569.802,25.7406,19.9999,NaN,NaN,NaN,NaN,""
662.625,25.7544,19.9999,NaN,NaN,NaN,NaN,""
671.892,25.7619,19.9998,NaN,NaN,NaN,NaN,""
729.972,25.8087,20,NaN,NaN,NaN,NaN,""
748.05,25.6628,20.0001,NaN,NaN,NaN,NaN,""
775.128,25.7534,20.0001,NaN,NaN,NaN,NaN,""
802.206,25.8439,19.9998,NaN,NaN,NaN,NaN,""
827.762,25.8489,19.9996,NaN,NaN,NaN,NaN,""
887.33,25.8606,19.9996,NaN,NaN,NaN,NaN,""
921.694,25.8151,19.9997,NaN,NaN,NaN,NaN,""
956.058,25.7696,19.9998,NaN,NaN,NaN,NaN,""
1012.85,25.7615,20.0001,NaN,NaN,NaN,NaN,""
1064.16,25.7542,19.9996,NaN,NaN,NaN,NaN,""
1094.34,25.7637,19.9994,NaN,NaN,NaN,NaN,""
1118.16,25.7712,19.9998,NaN,NaN,NaN,NaN,""
1124.52,25.7733,19.9998,NaN,NaN,NaN,NaN,""
1141.63,25.9346,19.9998,NaN,NaN,NaN,NaN,""
1150.22,25.6496,19.9998,NaN,NaN,NaN,NaN,""
1180.14,25.851,19.9999,NaN,NaN,NaN,NaN,""
1200.61,26.1499,20,NaN,NaN,NaN,NaN,""
1211.8,25.9087,20,NaN,NaN,NaN,NaN,""
1252.94,25.9052,20,NaN,NaN,NaN,NaN,""
1294.08,25.9018,19.9998,NaN,NaN,NaN,NaN,""
1294.37,25.9037,19.9998,NaN,NaN,NaN,NaN,"Reaction start. Measuring position. Signal correct"
1295.33,25.91,19.9998,5.84898e-06,5.50633e-06,1.46224e-06,1.37658e-06,""
1590.33,25.8401,19.9996,0.00451613,0.0209042,0.00112903,0.00522606,""
1611.24,25.8334,19.9995,0.0688766,0.704462,0.0172192,0.176116,""
1634.33,26.0831,19.9998,0.150748,3.27505,0.037687,0.818764,""
1655.33,25.9046,20,0.203477,7.03467,0.0508692,1.75867,""
1675.33,25.9446,20.0002,0.234179,11.4391,0.0585448,2.85978,""
1704.83,25.9145,20.0002,0.254801,18.7094,0.0637003,4.67735,""
1737.58,25.8142,20.0001,0.257206,27.1352,0.0643016,6.7838,""
1792.58,25.7928,20.0001,0.239932,40.879,0.0599831,10.2197,""
1866.08,25.7951,19.9999,0.204984,57.2532,0.0512461,14.3133,""
1935.75,25.8292,19.9999,0.172103,70.371,0.0430257,17.5927,""
2002.08,25.8701,19.9999,0.1443,80.8439,0.036075,20.211,""
2076.08,25.829,19.9999,0.11797,90.5183,0.0294926,22.6296,""
2160.45,25.8065,19.9999,0.0935857,99.4049,0.0233964,24.8512,""
2256.83,25.8021,19.9999,0.071934,107.334,0.0179835,26.8335,""
2362.5,25.7973,19.9996,0.0541666,113.948,0.0135416,28.487,""
2471.58,25.7924,20.0001,0.0407448,119.086,0.0101862,29.7714,""
2604.64,25.7976,19.9999,0.0292222,123.691,0.00730554,30.9227,""
2759.58,25.8069,19.9995,0.0203912,127.484,0.0050978,31.871,""
2914.11,25.8957,19.9999,0.0147549,130.167,0.00368872,32.5419,""
3116.3,25.7851,20,0.0102657,132.655,0.00256643,33.1637,""
3312.17,25.823,19.9999,0.00773782,134.397,0.00193446,33.5992,""
3573.61,25.7597,20.0003,0.00583309,136.145,0.00145827,34.0364,""
3929.25,25.7713,20,0.00450809,137.956,0.00112702,34.489,""
4332.78,25.7498,19.9991,0.00374955,139.606,0.000937387,34.9015,""
4709.08,25.7924,19.9998,0.00333476,140.933,0.000833689,35.2334,""
5255.25,25.7367,19.9999,0.00294613,142.641,0.000736532,35.6603,""
5982,25.7038,19.9999,0.00260727,144.651,0.000651816,36.1626,""
6637.89,25.7498,20,0.00239231,146.287,0.000598078,36.5717,""
7082.04,25.8102,19.9999,0.00228487,147.324,0.000571217,36.831,""
7893.6,25.9345,19.9999,0.00220691,149.137,0.000551728,37.2843,""
8576.42,26.0082,20.0003,0.00219909,150.641,0.000549771,37.6602,""
9370.91,25.8287,19.9998,0.00219289,152.386,0.000548223,38.0964,""
10193.6,26.0607,19.9995,0.00218185,154.185,0.000545461,38.5463,""
10681.1,25.9773,20.0001,0.00217765,155.248,0.000544413,38.8119,""
11450.4,25.9089,19.9997,0.00217825,156.923,0.000544562,39.2307,""
12061.1,26.2013,19.9999,0.00218694,158.255,0.000546734,39.5638,""
12778.2,25.9545,19.9998,0.00220602,159.83,0.000551505,39.9574,""
13491.1,26.1113,19.9998,0.00223573,161.413,0.000558933,40.3531,""
14124.6,25.953,19.9999,0.00227096,162.84,0.00056774,40.7099,""
14746.2,25.9463,20.0001,0.00231392,164.264,0.000578479,41.0661,""
15224.3,26.2927,20.0001,0.00235281,165.38,0.000588202,41.3449,""
15836.6,26.1818,20.0002,0.00240927,166.837,0.000602318,41.7093,""
16264.6,26.323,19.9998,0.00245439,167.878,0.000613597,41.9695,""
16819,26.1541,19.9999,0.00252024,169.256,0.000630059,42.3141,""
17346.3,26.0152,19.9998,0.0025913,170.604,0.000647826,42.6509,""
17889.9,26.2191,19.9997,0.00266272,172.032,0.00066568,43.0079,""
18463.8,26.107,19.9997,0.00274888,173.584,0.000687221,43.396,""
18964.7,26.4325,19.9998,0.00283575,174.982,0.000708938,43.7455,""
19504.8,26.0793,19.9998,0.00292714,176.539,0.000731785,44.1348,""
20064.9,26.0992,19.9998,0.00302269,178.205,0.000755671,44.5513,""
20678.7,25.9801,20,0.003138,180.096,0.0007845,45.0239,""
21154.4,25.9701,20.0001,0.00323387,181.612,0.000808469,45.4029,""
21685.7,25.9222,19.9995,0.00334713,183.359,0.000836783,45.8397,""
22480.7,25.8337,19.9996,0.00352837,186.091,0.000882094,46.5227,""
23094,25.8148,20.0001,0.00367818,188.3,0.000919544,47.075,""
23622.7,25.776,20.0002,0.00381425,190.28,0.000953563,47.5701,""
24341.8,25.8265,19.9998,0.00400899,193.095,0.00100225,48.2737,""
24977,25.7519,19.9997,0.00418973,195.696,0.00104743,48.924,""
25872.6,25.7606,20,0.00445775,199.568,0.00111444,49.892,""
26506,25.7457,20,0.00465682,202.454,0.0011642,50.6134,""
27415.2,25.7167,19.9999,0.00495325,206.826,0.00123831,51.7064,""
28419.6,25.6824,19.9999,0.0052946,211.967,0.00132365,52.9917,""
29361.8,25.6463,19.9999,0.00562565,217.111,0.00140641,54.2779,""
30055.6,25.6354,19.9997,0.00587438,221.1,0.0014686,55.275,""
30796.8,25.6947,20,0.00614386,225.554,0.00153597,56.3886,""
31509.2,25.6954,19.9995,0.00640442,230.025,0.00160111,57.5062,""
32119.6,25.6376,20,0.00662903,234.001,0.00165726,58.5003,""
33099.9,25.6654,20,0.00698932,240.68,0.00174733,60.1699,""
33818.3,25.6434,19.9999,0.00725359,245.793,0.0018134,61.4484,""
34599.8,25.6272,19.9994,0.00754907,251.576,0.00188727,62.8939,""
35256.2,25.5845,19.9999,0.00782818,256.619,0.00195704,64.1549,""
35963.9,25.6136,19.9999,0.00818151,262.283,0.00204538,65.5706,""
36574,25.4943,20.0001,0.00848248,267.367,0.00212062,66.8418,""
37505.2,25.5942,20,0.008887,275.459,0.00222175,68.8648,""
38403.6,25.6034,19.9997,0.00923575,283.601,0.00230894,70.9003,""
39126.8,25.6039,19.9997,0.00951103,290.381,0.00237776,72.5952,""
39754.5,25.5755,20.0002,0.00972264,296.419,0.00243066,74.1049,""
40396,25.6151,19.9998,0.00990827,302.717,0.00247707,75.6792,""
41215.2,25.6648,19.9999,0.0101117,310.92,0.00252792,77.73,""
41806.4,25.6057,19.9995,0.0102369,316.936,0.00255923,79.234,""
42469.7,25.5878,20.0001,0.0103572,323.767,0.00258929,80.9417,""
43164.3,25.6233,20.0004,0.0104609,330.999,0.00261524,82.7496,""
43993.6,25.5772,19.9999,0.0105569,339.716,0.00263923,84.9289,""
44718.2,25.6419,20,0.0106182,347.388,0.00265454,86.847,""
45277.8,25.5372,20,0.010651,353.34,0.00266276,88.335,""
45815.9,25.4531,19.9998,0.0106721,359.077,0.00266801,89.7693,""
46474.7,25.5585,19.9997,0.0106856,366.114,0.00267141,91.5285,""
47636.2,25.5678,19.9999,0.0106986,378.534,0.00267464,94.6335,""
48367.9,25.5432,20.0003,0.0106951,386.362,0.00267379,96.5904,""
48896.3,25.5909,19.9999,0.0106831,392.01,0.00267078,98.0026,""
49547.7,25.6099,19.9997,0.0106575,398.961,0.00266437,99.7402,""
50208.5,25.5338,19.9997,0.0106218,405.992,0.00265545,101.498,""
51073.5,25.535,19.9997,0.0105452,415.149,0.0026363,103.787,""
51748.9,25.5587,19.9997,0.0104728,422.247,0.0026182,105.562,""
52296.9,25.5085,19.9998,0.0104106,427.97,0.00260264,106.992,""
52857.5,25.5559,19.9999,0.0103449,433.786,0.00258623,108.447,""
53569.3,25.4901,20.0002,0.0102615,441.122,0.00256537,110.28,""
54149.6,25.5234,20,0.0101946,447.056,0.00254866,111.764,""
54952.2,25.5092,19.9996,0.0101054,455.203,0.00252636,113.801,""
55793.8,25.4867,19.9998,0.0100135,463.669,0.00250337,115.917,""
56375.7,25.5185,19.9999,0.00995294,469.478,0.00248823,117.369,""
57274.3,25.5438,19.9998,0.00986316,478.381,0.00246579,119.595,""
58057.7,25.4948,19.9996,0.00978629,486.077,0.00244657,121.519,""
58714.8,25.4883,20.0002,0.00972176,492.486,0.00243044,123.121,""
59507.6,25.4914,19.9999,0.00964326,500.163,0.00241081,125.041,""
60051.3,25.4745,19.9996,0.00958847,505.391,0.00239712,126.348,""
60883.7,25.4456,19.9994,0.00950423,513.338,0.00237606,128.334,""
61678.2,25.4455,20,0.00942337,520.857,0.00235584,130.214,""
62713.5,25.4461,19.9999,0.00931704,530.558,0.00232926,132.639,""
63598,25.4815,19.9996,0.00922781,538.759,0.00230695,134.69,""
64665,25.4913,19.9998,0.00912285,548.549,0.00228071,137.137,""
65367.3,25.5798,19.9999,0.00905306,554.932,0.00226327,138.733,""
65970.8,25.5064,19.9999,0.00899313,560.378,0.00224828,140.094,""
66755.4,25.5274,20,0.00891598,567.403,0.00222899,141.851,""
67637.2,25.5065,19.9998,0.00883007,575.227,0.00220752,143.807,""
68502.3,25.5156,20.001,0.00874569,582.83,0.00218642,145.708,""
69179.4,25.4978,19.9998,0.00868053,588.729,0.00217013,147.182,""
70052.3,25.5046,19.9999,0.00859629,596.27,0.00214907,149.068,""
71124.2,25.5566,20.0001,0.00849269,605.429,0.00212317,151.357,""
71723.2,25.5567,19.9995,0.00843425,610.498,0.00210856,152.625,""
72418.4,25.562,19.9996,0.00836709,616.339,0.00209177,154.085,""
73255.4,25.5559,19.9996,0.00828502,623.307,0.00207125,155.827,""
73895.1,25.6622,20,0.00822245,628.587,0.00205561,157.147,""
74528.4,26.5206,20.0007,0.00815986,633.774,0.00203997,158.444,""
75302.5,26.5173,20.0001,0.00808306,640.061,0.00202077,160.015,""
76079.3,26.5809,19.9994,0.00800465,646.31,0.00200116,161.578,""
76565.8,26.495,19.9998,0.00795575,650.192,0.00198894,162.548,""
77084.5,26.5645,20.0002,0.00790355,654.305,0.00197589,163.576,""
77727,26.7583,20.0001,0.00783925,659.363,0.00195981,164.841,""
78353.3,26.6463,19.9996,0.00777566,664.252,0.00194391,166.063,""
78870.2,26.7227,19.9997,0.00772312,668.257,0.00193078,167.064,""
79468.3,26.6173,19.9998,0.00766185,672.859,0.00191546,168.215,""
80275,26.6126,19.9997,0.00757879,679.006,0.0018947,169.751,""
81055.9,26.6728,19.9998,0.00749741,684.893,0.00187435,171.223,""
81905.9,26.6796,20,0.00740817,691.228,0.00185204,172.807,""
82639.1,26.6266,19.9997,0.0073311,696.631,0.00183278,174.158,""
83301.1,26.6846,19.9998,0.00726182,701.462,0.00181546,175.365,""
83960.6,26.6432,19.9997,0.00719351,706.228,0.00179838,176.557,""
84499,26.7398,19.9999,0.00713746,710.086,0.00178437,177.521,""
85242,26.6345,19.9996,0.00706025,715.361,0.00176506,178.84,""
85782.9,26.5427,19.9997,0.00700356,719.164,0.00175089,179.791,""
86385.8,26.699,20.0005,0.00694082,723.367,0.0017352,180.842,""
87230.1,26.7669,20.0001,0.00685278,729.191,0.0017132,182.298,""
88062.3,26.7891,20,0.00676628,734.857,0.00169157,183.714,""
88717.2,26.7934,20.0001,0.00669813,739.266,0.00167453,184.817,""
89700.2,26.8165,19.9999,0.00659555,745.798,0.00164889,186.449,""
90389.9,26.8397,19.9996,0.00652448,750.324,0.00163112,187.581,""
90952,26.7857,20.0001,0.00646597,753.976,0.00161649,188.494,""
91714.3,26.8057,19.9998,0.0063873,758.875,0.00159683,189.719,""
92347.6,26.7887,20.0002,0.00632353,762.9,0.00158088,190.725,""
93056.8,26.7709,19.9999,0.0062514,767.359,0.00156285,191.84,""
93920,26.7777,19.9999,0.00616412,772.718,0.00154103,193.179,""
94656,26.6495,19.9996,0.00609004,777.227,0.00152251,194.307,""
95466.9,26.6985,19.9991,0.00600954,782.133,0.00150238,195.533,""
96185.3,26.7413,20.0003,0.00593766,786.424,0.00148442,196.606,""
96930.7,26.6856,20.0002,0.00586348,790.822,0.00146587,197.705,""
97486.3,26.5975,19.9998,0.00580842,794.06,0.00145211,198.515,""
98472,26.4609,19.9998,0.00571128,799.741,0.00142782,199.935,""
99008.5,26.5816,19.9995,0.00565809,802.791,0.00141452,200.698,""
99838.5,26.5282,19.9995,0.00557633,807.454,0.00139408,201.864,""
100710,26.5293,19.9999,0.00549081,812.277,0.0013727,203.069,""
101296,25.6348,19.9996,0.00543368,815.48,0.00135842,203.87,""
101904,25.4685,19.999,0.00537405,818.765,0.00134351,204.691,""
102395,25.8561,20.0001,0.00532675,821.39,0.00133169,205.347,""
102940,25.9661,19.9998,0.00527424,824.281,0.00131856,206.07,""
103498,25.6315,19.9996,0.00522051,827.208,0.00130513,206.802,""
104210,25.543,19.9995,0.00515238,830.898,0.0012881,207.724,""
104904,25.628,19.9993,0.0050862,834.452,0.00127155,208.613,""
105524,25.4842,19.9997,0.00502736,837.588,0.00125684,209.397,""
106336,25.4768,19.9997,0.00495071,841.64,0.00123768,210.41,""
106890,25.3977,20,0.00489871,844.367,0.00122468,211.092,""
107714,25.4145,19.9996,0.00482111,848.372,0.00120528,212.093,""
108599,25.5614,19.9996,0.00473824,852.599,0.00118456,213.15,""
109124,25.536,19.9997,0.00468945,855.076,0.00117236,213.769,""
109848,25.401,19.9999,0.00462188,858.448,0.00115547,214.612,""
110583,25.4436,19.9999,0.00455398,861.819,0.0011385,215.455,""
111244,25.3384,19.9998,0.00449341,864.811,0.00112335,216.203,""
111939,25.3333,20.0001,0.00442984,867.91,0.00110746,216.978,""
112725,25.6666,19.9999,0.00435926,871.365,0.00108981,217.841,""
113444,25.5111,20.0001,0.00429525,874.477,0.00107381,218.619,""
114057,25.5607,19.9996,0.00424159,877.091,0.0010604,219.273,""
114561,25.5637,19.9997,0.00419822,879.218,0.00104955,219.805,""
115177,25.3089,19.9994,0.00414595,881.786,0.00103649,220.447,""
115857,25.3598,19.9999,0.00408955,884.587,0.00102239,221.147,""
116490,25.2963,20,0.0040384,887.159,0.0010096,221.79,""
117055,25.6517,20.0001,0.00399388,889.432,0.00099847,222.358,""
117714,25.4169,19.9994,0.0039432,892.046,0.000985801,223.012,""
118236,25.4589,20,0.00390433,894.092,0.000976082,223.523,""
118738,25.4296,20.0001,0.00386758,896.043,0.000966895,224.011,""
119577,25.2113,19.9998,0.00380865,899.265,0.000952163,224.816,""
120280,25.5093,19.9999,0.00376134,901.925,0.000940334,225.481,""
120943,25.5743,20.0001,0.00371819,904.401,0.000929547,226.1,""
122068,25.2642,19.9996,0.00364969,908.546,0.000912422,227.137,""
122810,25.2395,19.9999,0.00360634,911.239,0.000901585,227.81,""
123763,25.2592,19.999,0.00355397,914.651,0.000888494,228.663,""
124386,25.1813,19.9998,0.00352042,916.856,0.000880105,229.214,""
125125,25.2158,19.9998,0.00348231,919.443,0.000870578,229.861,""
125894,25.3799,20.0001,0.00344445,922.108,0.000861112,230.527,""
126534,25.2901,20.0001,0.00341414,924.3,0.000853536,231.075,""
127266,25.2506,20,0.00337998,926.789,0.000844994,231.697,""
127999,25.2699,19.9997,0.00334705,929.254,0.000836763,232.313,""
129198,25.2095,19.9998,0.00329541,933.234,0.000823852,233.309,""
130204,25.3882,20,0.00325359,936.528,0.000813398,234.132,""
130822,25.3164,19.9999,0.00322821,938.533,0.000807052,234.633,""
131526,25.1422,19.9997,0.00320061,940.795,0.000800153,235.199,""
132073,25.2038,19.9989,0.00317836,942.539,0.000794589,235.635,""
132961,25.3436,19.9999,0.00314407,945.346,0.000786017,236.337,""
133542,25.1044,19.9996,0.00312217,947.168,0.000780542,236.792,""
134255,25.0185,19.9996,0.00309622,949.384,0.000774056,237.346,""
134992,25.0952,19.9997,0.00306876,951.656,0.000767191,237.914,""
135696,25.1028,19.9996,0.00304366,953.807,0.000760914,238.452,""
136412,25.0632,19.9997,0.00301872,955.977,0.00075468,238.994,""
137442,25.0952,19.9998,0.00298387,959.069,0.000745969,239.767,""
138472,25.0649,19.9995,0.00294972,962.126,0.000737431,240.531,""
139359,25.0104,20.0001,0.00292049,964.727,0.000730123,241.182,""
140067,25.0226,19.9998,0.00289875,966.789,0.000724688,241.697,""
140847,25.073,19.9997,0.00287402,969.039,0.000718506,242.26,""
141525,25.0688,19.9998,0.00285355,970.982,0.000713387,242.745,""
142250,25.0936,19.9999,0.00283216,973.042,0.000708039,243.261,""
142979,25.0972,19.9997,0.00281131,975.099,0.000702829,243.775,""
143927,25.0985,20,0.00278326,977.751,0.000695814,244.438,""
144381,25.0467,19.9999,0.00277048,979.011,0.000692621,244.753,""
145262,25.093,20,0.00274551,981.44,0.000686376,245.36,""
146195,25.1261,20,0.00271986,983.991,0.000679966,245.998,""
147105,25.0771,19.9997,0.00269559,986.455,0.000673898,246.614,""
147751,25.1417,19.9997,0.00267847,988.19,0.000669618,247.048,""
148426,25.1752,20.0002,0.00266115,989.993,0.000665287,247.498,""
149419,25.1212,19.9997,0.00263594,992.622,0.000658986,248.155,""
150032,25.1797,19.9999,0.00262023,994.234,0.000655058,248.558,""
150905,25.1192,19.9998,0.00259799,996.512,0.000649498,249.128,""
151611,25.1135,19.9995,0.00258126,998.339,0.000645314,249.585,""
152513,25.0218,19.9997,0.00256022,1000.66,0.000640055,250.165,""
153185,25.0313,19.9997,0.002544,1002.37,0.000636,250.593,""
154102,25.0595,19.9999,0.00252251,1004.7,0.000630626,251.174,""
154903,25.043,19.9998,0.00250366,1006.71,0.000625915,251.678,""
155619,25.1279,19.9998,0.00248794,1008.5,0.000621985,252.124,""
156424,25.0358,19.9998,0.00246997,1010.49,0.000617491,252.623,""
157142,25.1136,20,0.00245469,1012.26,0.000613671,253.065,""
157944,25.0521,19.9999,0.00243737,1014.22,0.000609342,253.555,""
158637,25.219,19.9998,0.00242276,1015.91,0.00060569,253.977,""
159390,25.2174,20.0003,0.00240705,1017.73,0.000601761,254.431,""
160074,25.2003,19.9999,0.0023935,1019.37,0.000598376,254.841,""
160701,25.2181,19.9998,0.00238123,1020.86,0.000595307,255.215,""
161456,25.2467,20.0004,0.00236606,1022.65,0.000591515,255.664,""
162352,25.1792,19.9997,0.00234866,1024.77,0.000587166,256.192,""
163082,25.0998,20,0.00233433,1026.48,0.000583581,256.619,""
163788,25.1308,19.9998,0.00232129,1028.12,0.000580322,257.03,""
164739,25.2189,19.9995,0.00230362,1030.32,0.000575906,257.58,""
165422,25.1317,19.9999,0.00229116,1031.89,0.000572791,257.972,""
166101,25.1906,19.9998,0.00227906,1033.44,0.000569764,258.36,""
166769,25.3524,20,0.0022672,1034.96,0.0005668,258.74,""
167478,25.372,19.9997,0.00225447,1036.56,0.000563617,259.14,""
168124,25.2557,19.9996,0.0022438,1038.02,0.000560949,259.504,""
168869,25.326,19.9999,0.00223178,1039.68,0.000557945,259.92,""
169436,25.2032,19.9997,0.00222289,1040.94,0.000555722,260.236,""
170081,25.3781,20.0001,0.00221245,1042.37,0.000553113,260.593,""
170649,25.2638,19.9996,0.00220333,1043.63,0.000550832,260.907,""
171351,25.2424,19.9999,0.00219202,1045.17,0.000548006,261.293,""
172056,25.217,19.9999,0.00218082,1046.71,0.000545206,261.678,""
172724,25.3199,20.0001,0.00217025,1048.16,0.000542563,262.041,""
174085,25.3955,20,0.00214961,1051.11,0.000537402,262.776,""
174849,25.2743,19.9996,0.00213806,1052.74,0.000534514,263.186,""
175596,25.3734,19.9997,0.00212695,1054.34,0.000531737,263.584,""
176519,25.287,19.9994,0.00211334,1056.29,0.000528334,264.073,""
177039,25.3509,20.0001,0.00210593,1057.39,0.000526484,264.348,""
177944,25.3617,19.9996,0.00209285,1059.29,0.000523212,264.822,""
178678,25.4078,19.9998,0.00208276,1060.82,0.00052069,265.205,""
179483,25.232,19.9997,0.00207165,1062.5,0.000517912,265.624,""
180048,25.1798,19.9995,0.00206378,1063.66,0.000515944,265.916,""
180786,25.1982,19.9999,0.00205413,1065.18,0.000513531,266.296,""
181453,25.18,19.9998,0.00204537,1066.55,0.000511343,266.638,""
182191,25.1884,20.0001,0.00203561,1068.05,0.000508904,267.014,""
182912,25.1936,19.9997,0.00202603,1069.52,0.000506507,267.38,""
183503,25.1642,20,0.00201845,1070.71,0.000504613,267.679,""
184235,25.1785,19.9985,0.00200891,1072.19,0.000502228,268.047,""
185580,25.1721,20.0001,0.00199211,1074.88,0.000498026,268.72,""
186221,25.1796,19.9999,0.00198412,1076.15,0.000496029,269.038,""
187002,25.2799,20.0006,0.0019745,1077.7,0.000493625,269.425,""
187708,25.2597,19.9997,0.00196587,1079.09,0.000491467,269.773,""
188366,25.2311,20.0001,0.00195834,1080.38,0.000489585,270.095,""
189301,25.3796,20.0002,0.00194751,1082.21,0.000486877,270.552,""
189841,25.332,19.9994,0.00194097,1083.26,0.000485243,270.815,""
190867,25.244,19.9998,0.00193016,1085.24,0.000482539,271.311,""
191508,25.2698,19.9999,0.00192319,1086.48,0.000480798,271.62,""
192213,25.2601,20,0.00191563,1087.83,0.000478908,271.958,""
192989,25.2962,20.0008,0.00190752,1089.31,0.00047688,272.329,""
193717,25.2961,19.9999,0.00190009,1090.7,0.000475022,272.675,""
194303,25.3661,19.9998,0.00189405,1091.81,0.000473513,272.953,""
195093,25.3276,20.0002,0.00188605,1093.31,0.000471512,273.326,""
195694,25.3251,19.9998,0.00188019,1094.44,0.000470048,273.609,""
196872,25.3494,19.9999,0.00186779,1096.65,0.000466948,274.161,""
197874,25.3532,20.0001,0.00185776,1098.51,0.000464439,274.628,""
198547,25.3301,20,0.00185131,1099.76,0.000462826,274.94,""
199129,25.4009,19.9998,0.00184567,1100.83,0.000461417,275.209,""
199746,25.9968,20.0005,0.00183992,1101.97,0.000459981,275.493,""
200370,25.8714,20.0004,0.0018341,1103.12,0.000458525,275.78,""
200900,25.7,20,0.00182869,1104.09,0.000457172,276.022,""
201438,26.2237,20.0005,0.00182354,1105.07,0.000455885,276.268,""
201954,26.1097,20,0.00181893,1106.01,0.000454733,276.503,""
202436,25.9471,19.9995,0.00181432,1106.89,0.00045358,276.722,""
202973,25.6493,19.9997,0.00180884,1107.86,0.000452209,276.965,""
203540,25.6838,19.9999,0.00180363,1108.88,0.000450907,277.221,""
204277,25.6189,19.9997,0.00179683,1110.21,0.000449207,277.553,""
204778,25.9236,19.9998,0.00179246,1111.11,0.000448116,277.777,""
205303,25.449,20,0.00178801,1112.05,0.000447002,278.012,""
205795,25.6603,19.9983,0.00178417,1112.93,0.000446042,278.232,""
206268,25.8182,20,0.00177985,1113.77,0.000444963,278.443,""
206686,25.6364,20.0001,0.00177656,1114.51,0.00044414,278.629,""
207129,25.8696,19.9998,0.00177323,1115.3,0.000443306,278.825,""
207670,25.62,19.9994,0.00176927,1116.26,0.000442318,279.065,""
208323,25.7825,19.9999,0.00176398,1117.41,0.000440995,279.353,""
208863,26.0071,20.0001,0.00176012,1118.36,0.000440029,279.591,""
209455,25.5086,19.9995,0.00175576,1119.4,0.000438939,279.851,""
209986,25.6463,19.9999,0.00175135,1120.33,0.000437837,280.084,""
210759,25.4691,19.9998,0.00174528,1121.69,0.000436321,280.422,""
211317,25.4484,19.9998,0.00174097,1122.66,0.000435242,280.665,""
212026,25.2892,19.9991,0.00173564,1123.89,0.00043391,280.973,""
212717,25.3006,19.9998,0.00173063,1125.09,0.000432658,281.272,""
213421,25.2994,19.9997,0.00172511,1126.31,0.000431277,281.577,""
214086,25.2826,20,0.00172041,1127.45,0.000430102,281.863,""
214697,25.2823,19.9997,0.00171575,1128.5,0.000428937,282.125,""
215555,25.3193,19.9996,0.00170909,1129.97,0.000427274,282.493,""
216457,25.3365,20.0003,0.00170279,1131.51,0.000425696,282.877,""
217419,25.2959,19.9999,0.00169595,1133.14,0.000423989,283.286,""
218153,25.3083,19.9999,0.00169058,1134.39,0.000422646,283.597,""
219019,25.295,19.9999,0.00168419,1135.85,0.000421047,283.962,""
219798,25.3353,19.9998,0.00167877,1137.16,0.000419693,284.289,""
220435,25.2912,19.9995,0.00167484,1138.23,0.00041871,284.556,""
221124,25.3162,19.9997,0.00167007,1139.38,0.000417517,284.845,""
221986,25.3456,19.9999,0.00166456,1140.82,0.000416139,285.204,""
222713,25.3361,19.9998,0.00166004,1142.02,0.000415011,285.506,""
223729,25.3964,19.9997,0.00165308,1143.71,0.000413269,285.927,""
224502,25.3492,19.9996,0.00164793,1144.98,0.000411983,286.246,""
225438,25.3092,19.9999,0.00164192,1146.52,0.000410479,286.631,""
226409,25.2918,19.9999,0.00163631,1148.11,0.000409077,287.029,""
227337,25.3139,19.9997,0.00163038,1149.63,0.000407595,287.407,""
228379,25.3331,20.0002,0.00162447,1151.33,0.000406118,287.831,""
229013,25.2444,19.9996,0.00162048,1152.35,0.000405119,288.089,""
229789,25.3166,20.0001,0.00161597,1153.61,0.000403992,288.402,""
230764,25.2727,20,0.0016105,1155.18,0.000402625,288.796,""
231746,25.3169,20,0.00160476,1156.76,0.00040119,289.19,""
232610,25.2526,19.9998,0.0015997,1158.15,0.000399925,289.537,""
233511,25.3043,20.0001,0.00159481,1159.58,0.000398703,289.896,""
234414,25.3151,19.9999,0.0015896,1161.02,0.000397399,290.255,""
235228,25.3255,19.9998,0.00158519,1162.31,0.000396297,290.579,""
235900,25.3156,19.9998,0.00158138,1163.38,0.000395346,290.845,""
236776,25.3255,19.9995,0.00157669,1164.76,0.000394172,291.19,""
237577,25.376,19.9999,0.00157195,1166.02,0.000392989,291.505,""
238461,25.3939,19.9992,0.00156744,1167.41,0.000391859,291.853,""
239710,25.3859,19.9998,0.00156042,1169.36,0.000390105,292.341,""
241076,25.456,19.9999,0.00155284,1171.49,0.000388211,292.872,""
241861,25.4085,19.9998,0.00154853,1172.71,0.000387131,293.177,""
243009,26.0555,20.0004,0.0015428,1174.48,0.000385699,293.62,""
243713,26.1796,19.9998,0.00153909,1175.57,0.000384772,293.892,""
244074,26.1407,19.9998,0.00153724,1176.12,0.000384311,294.031,""
244741,26.274,20,0.00153378,1177.15,0.000383446,294.287,""
245740,26.2839,19.9997,0.00152839,1178.68,0.000382098,294.669,""
246204,26.2861,20.0001,0.00152591,1179.38,0.000381478,294.846,""
247094,26.1636,19.9997,0.00152174,1180.74,0.000380436,295.185,""
247758,26.2034,19.9999,0.00151793,1181.75,0.000379483,295.438,""
248472,26.2888,20.0002,0.00151436,1182.83,0.00037859,295.708,""
249329,26.2348,19.9999,0.00151014,1184.13,0.000377536,296.032,""
250050,26.2253,20,0.00150644,1185.22,0.000376609,296.304,""
250756,26.1851,20,0.00150327,1186.28,0.000375818,296.57,""
251642,26.2284,19.9998,0.00149929,1187.61,0.000374824,296.902,""
252581,26.1808,20,0.00149463,1189.01,0.000373657,297.253,""
253638,26.1986,20.0001,0.00148963,1190.59,0.000372407,297.648,""
254360,26.1974,19.9998,0.00148629,1191.67,0.000371572,297.916,""
255191,26.2385,19.9997,0.00148268,1192.9,0.000370671,298.225,""
255981,26.1713,20.0001,0.00147908,1194.07,0.000369771,298.517,""
256948,26.1464,19.9998,0.0014746,1195.5,0.000368649,298.874,""
257666,26.2945,19.9997,0.00147126,1196.55,0.000367814,299.138,""
258520,26.2307,19.9999,0.00146781,1197.81,0.000366951,299.452,""
259226,26.2079,19.9997,0.00146477,1198.84,0.000366193,299.711,""
260086,26.3242,19.9989,0.00146132,1200.1,0.00036533,300.026,""
260803,26.2335,20.0006,0.00145821,1201.15,0.000364554,300.287,""
261566,26.1947,19.9997,0.00145536,1202.26,0.00036384,300.565,""
262321,26.2403,19.9995,0.0014519,1203.36,0.000362974,300.84,""
263070,26.2435,20.0001,0.00144836,1204.44,0.00036209,301.111,""
263622,26.2188,20.0001,0.00144581,1205.24,0.000361452,301.311,""
264475,26.298,19.9999,0.00144161,1206.47,0.000360403,301.619,""
265096,26.3017,20,0.00143849,1207.37,0.000359623,301.842,""
265807,26.2935,20,0.00143517,1208.39,0.000358791,302.098,""
266590,26.3118,20.0004,0.00143142,1209.51,0.000357854,302.378,""
267315,26.2815,20.0005,0.00142795,1210.55,0.000356987,302.637,""
268277,26.3377,20.0002,0.001423,1211.92,0.000355751,302.98,""
268943,26.3477,19.9986,0.00142033,1212.87,0.000355082,303.217,""
269574,26.3064,19.9993,0.00141726,1213.76,0.000354314,303.441,""
270386,25.7837,19.9992,0.00141365,1214.91,0.000353413,303.728,""
271165,25.7713,19.9997,0.00141006,1216.01,0.000352515,304.003,""
271742,25.696,19.9999,0.00140731,1216.82,0.000351827,304.206,""
272368,25.4077,19.9995,0.00140461,1217.71,0.000351152,304.426,""
272962,25.3782,19.9997,0.00140196,1218.54,0.00035049,304.635,""
273542,25.5521,20,0.00139895,1219.35,0.000349738,304.838,""
274242,25.4612,19.9997,0.00139586,1220.33,0.000348965,305.082,""
274688,25.5066,19.9998,0.00139396,1220.95,0.000348491,305.238,""
275312,25.4126,19.9995,0.00139074,1221.82,0.000347685,305.455,""
276088,25.3184,19.9997,0.00138726,1222.9,0.000346815,305.725,""
276833,25.3165,19.9999,0.00138427,1223.93,0.000346066,305.983,""
277726,25.3626,20,0.00138014,1225.17,0.000345036,306.291,""
278341,25.3435,19.9996,0.00137728,1226.01,0.00034432,306.503,""
279125,25.3297,19.9997,0.0013738,1227.09,0.00034345,306.773,""
279859,25.3156,20.0007,0.00137048,1228.1,0.000342619,307.025,""
280670,25.3204,20,0.00136656,1229.21,0.000341641,307.302,""
281394,25.3376,19.9997,0.00136314,1230.2,0.000340785,307.549,""
282203,25.341,19.9999,0.00135929,1231.3,0.000339824,307.824,""
282877,25.4702,19.9999,0.00135634,1232.21,0.000339085,308.053,""
283708,25.411,19.9999,0.00135273,1233.34,0.000338183,308.335,""
284596,25.3736,19.9996,0.00134875,1234.54,0.000337188,308.634,""
285404,25.3981,19.9998,0.00134485,1235.63,0.000336213,308.906,""
286365,25.3923,20.0001,0.00134024,1236.92,0.00033506,309.229,""
287240,25.4019,20.0001,0.00133626,1238.09,0.000334066,309.522,""
288690,25.4012,20.0002,0.00132948,1240.02,0.00033237,310.005,""
289530,25.4019,20,0.00132575,1241.14,0.000331437,310.284,""
290287,25.4062,20,0.00132253,1242.14,0.000330632,310.534,""
291002,25.433,20.0001,0.00131928,1243.08,0.000329819,310.771,""
291671,25.3825,19.9994,0.00131601,1243.96,0.000329002,310.991,""
292421,25.4313,20.0014,0.0013129,1244.95,0.000328226,311.237,""
293050,25.4403,20,0.00131034,1245.77,0.000327585,311.443,""
293878,25.3907,19.9999,0.00130661,1246.86,0.000326652,311.715,""
294709,25.4485,20,0.00130308,1247.94,0.000325771,311.986,""
295551,25.3833,19.9997,0.00129904,1249.04,0.00032476,312.259,""
296292,25.4089,20,0.00129573,1250,0.000323933,312.5,""
296864,25.3744,20,0.00129337,1250.74,0.000323343,312.685,""
297797,25.4145,20,0.00128918,1251.94,0.000322296,312.986,""
298899,25.4267,19.9999,0.00128444,1253.36,0.000321111,313.341,""
299569,25.4346,20.0002,0.00128201,1254.22,0.000320501,313.556,""
300291,25.4106,19.9997,0.00127896,1255.15,0.00031974,313.787,""
301476,25.39,19.9999,0.00127378,1256.66,0.000318444,314.165,""
302266,25.3715,19.9998,0.00127058,1257.66,0.000317646,314.416,""
302946,25.4147,19.9996,0.00126747,1258.53,0.000316867,314.632,""
304243,25.43,19.9998,0.00126198,1260.17,0.000315494,315.042,""
304955,25.4553,19.9998,0.00125909,1261.07,0.000314772,315.266,""
305722,25.4089,19.9999,0.00125575,1262.03,0.000313938,315.507,""
306241,25.4445,20.0004,0.00125365,1262.68,0.000313413,315.67,""
307016,25.4527,19.9996,0.00125042,1263.65,0.000312605,315.913,""
307837,25.4205,19.9999,0.00124667,1264.68,0.000311668,316.169,""
308732,25.4039,19.9998,0.00124296,1265.79,0.00031074,316.448,""
309449,25.3251,20,0.00123997,1266.68,0.000309993,316.67,""
310690,25.3932,20,0.00123458,1268.22,0.000308644,317.054,""
311640,25.464,19.9998,0.00123055,1269.39,0.000307637,317.347,""
312461,25.4537,20.0001,0.00122726,1270.4,0.000306814,317.599,""
313380,25.4954,20,0.00122359,1271.52,0.000305897,317.88,""
314341,25.4146,19.9999,0.00121936,1272.7,0.000304839,318.174,""
315130,25.4407,19.9997,0.00121633,1273.66,0.000304084,318.414,""
316085,25.4547,19.9999,0.00121242,1274.82,0.000303104,318.704,""
316737,25.4019,19.9997,0.00120964,1275.61,0.00030241,318.901,""
317376,25.4433,19.9989,0.00120693,1276.38,0.000301732,319.095,""
317929,25.4474,19.9999,0.00120454,1277.05,0.000301134,319.261,""
318595,25.435,19.9996,0.00120181,1277.85,0.000300454,319.462,""
319162,25.4389,19.9998,0.0011998,1278.53,0.00029995,319.632,""
319965,25.4029,20.0004,0.00119628,1279.49,0.00029907,319.872,""
320678,25.4756,19.9994,0.00119332,1280.34,0.00029833,320.085,""
321555,25.3829,19.9999,0.00118971,1281.39,0.000297429,320.347,""
322621,25.4576,19.9998,0.00118494,1282.65,0.000296235,320.663,""
323574,25.3745,19.9998,0.00118055,1283.78,0.000295138,320.945,""
324267,25.3994,19.9998,0.0011777,1284.6,0.000294425,321.149,""
[...]
338262,25.5308,19.9999,0.00112084,1300.68,0.000280211,325.169,""
339085,25.6027,19.9995,0.00111756,1301.6,0.000279389,325.399,""
339792,25.5435,19.9999,0.0011148,1302.39,0.000278701,325.597,""
341106,25.5301,19.9999,0.00111004,1303.85,0.000277509,325.962,""
342078,25.573,19.9997,0.00110619,1304.92,0.000276548,326.231,""
342704,25.5643,20,0.0011038,1305.62,0.000275949,326.404,""
343484,25.5336,20,0.00110051,1306.48,0.000275129,326.619,""
344414,25.4617,20.0004,0.00109681,1307.5,0.000274202,326.874,""
345272,25.5373,19.9997,0.00109327,1308.44,0.000273318,327.11,""
346659,25.5359,19.9998,0.00108778,1309.95,0.000271945,327.488,""
347569,25.5948,19.9998,0.00108404,1310.94,0.000271009,327.735,""
348280,25.5814,19.9998,0.0010813,1311.71,0.000270325,327.927,""
349119,25.5896,19.9999,0.00107763,1312.61,0.000269409,328.153,""
349930,25.514,19.9996,0.00107463,1313.49,0.000268657,328.372,""
350606,25.5526,20,0.00107217,1314.21,0.000268041,328.553,""
351401,25.6215,19.9999,0.00106909,1315.06,0.000267273,328.766,""
352124,25.6778,19.9999,0.00106635,1315.84,0.000266588,328.959,""
352747,25.6176,19.9999,0.00106393,1316.5,0.000265983,329.125,""
354161,25.6276,19.9999,0.00105809,1318,0.000264524,329.5,""
355029,25.6078,20.0001,0.00105483,1318.92,0.000263709,329.729,""
355665,25.711,19.9999,0.00105192,1319.59,0.00026298,329.897,""
356634,25.6711,19.9998,0.00104862,1320.6,0.000262155,330.151,""
357695,25.7416,20.0001,0.00104458,1321.71,0.000261146,330.429,""
358355,25.5721,19.9999,0.00104213,1322.4,0.000260531,330.601,""
359223,25.7184,19.9995,0.00103902,1323.31,0.000259756,330.827,""
360094,25.7074,19.9999,0.00103587,1324.21,0.000258969,331.053,""
360743,25.5389,19.9997,0.00103327,1324.88,0.000258318,331.22,""
361279,25.6054,19.9999,0.00103136,1325.44,0.00025784,331.359,""
361881,25.6087,19.9997,0.00102874,1326.06,0.000257185,331.514,""
362734,25.7028,19.9994,0.0010254,1326.93,0.000256349,331.733,""
363307,25.7862,20,0.00102326,1327.52,0.000255814,331.88,""
364233,25.6213,19.9999,0.00101983,1328.46,0.000254957,332.116,""
365086,25.7864,20,0.00101649,1329.33,0.000254123,332.333,""
365657,25.5754,19.9994,0.00101443,1329.91,0.000253608,332.478,""
366396,25.7206,19.9996,0.00101159,1330.66,0.000252897,332.665,""
367015,25.7854,20.0009,0.00100956,1331.29,0.00025239,332.822,""
367632,25.7484,19.9997,0.00100739,1331.91,0.000251848,332.977,""
368659,25.7509,19.9998,0.00100343,1332.94,0.000250856,333.235,""
369502,25.6968,20.0001,0.000999888,1333.79,0.000249972,333.446,""
370670,25.6358,20,0.00099536,1334.95,0.00024884,333.738,""
371313,25.6926,19.9998,0.000992567,1335.59,0.000248142,333.898,""
372112,25.7618,20.0002,0.000989598,1336.38,0.000247399,334.096,""
372994,25.6618,20,0.000986261,1337.25,0.000246565,334.314,""
373880,25.6869,19.9999,0.000982705,1338.13,0.000245676,334.532,""
374837,25.7025,20,0.000979213,1339.07,0.000244803,334.766,""
375618,25.6415,19.9999,0.000976594,1339.83,0.000244148,334.957,""
376575,25.6413,19.9996,0.000973099,1340.76,0.000243275,335.191,""
377302,25.6271,20,0.000970338,1341.47,0.000242584,335.367,""
378022,25.6222,19.9996,0.000967233,1342.17,0.000241808,335.542,""
378667,25.6077,19.9997,0.000964978,1342.79,0.000241245,335.697,""
379350,25.5901,20,0.000962809,1343.45,0.000240702,335.862,""
379971,25.5889,19.9998,0.000960705,1344.05,0.000240176,336.011,""
380885,25.6635,20.0002,0.00095753,1344.92,0.000239383,336.23,""
381663,25.5911,19.9998,0.000954996,1345.67,0.000238749,336.416,""
382533,25.5911,20,0.000951926,1346.49,0.000237982,336.624,""
383181,25.6566,20,0.000949366,1347.11,0.000237342,336.778,""
383753,25.677,19.9995,0.000947506,1347.65,0.000236877,336.913,""
384923,25.753,20.0005,0.000943424,1348.76,0.000235856,337.19,""
385814,25.7505,19.9995,0.000940405,1349.6,0.000235101,337.399,""
386736,25.743,19.9997,0.000936768,1350.46,0.000234192,337.616,""
387537,25.7172,19.9997,0.0009342,1351.21,0.00023355,337.803,""
388287,25.7296,20,0.0009319,1351.91,0.000232975,337.978,""
389379,25.7057,19.9998,0.00092807,1352.93,0.000232017,338.232,""
390090,25.7258,20,0.000925808,1353.59,0.000231452,338.397,""
390830,25.7504,19.9999,0.000923559,1354.27,0.00023089,338.568,""
391383,25.7787,19.9997,0.000921413,1354.78,0.000230353,338.696,""
392357,25.7228,19.9999,0.00091796,1355.68,0.00022949,338.92,""
393347,25.6912,19.9995,0.000914687,1356.59,0.000228672,339.147,""
394109,25.712,20,0.000911837,1357.28,0.000227959,339.32,""
394994,25.7027,19.9997,0.000909205,1358.09,0.000227301,339.522,""
396000,25.6951,20.0004,0.000905583,1359,0.000226396,339.75,""
396866,25.7011,19.9995,0.00090283,1359.78,0.000225707,339.946,""
398163,25.701,19.9998,0.000898273,1360.95,0.000224568,340.238,""
399188,25.6737,19.9999,0.000894826,1361.87,0.000223707,340.468,""
400738,25.6776,19.9997,0.000889602,1363.25,0.0002224,340.814,""
402063,25.7015,19.9998,0.000885313,1364.43,0.000221328,341.108,""
402900,25.6365,19.9999,0.000882576,1365.17,0.000220644,341.292,""
403886,25.6093,19.9999,0.000879511,1366.04,0.000219878,341.51,""
404758,25.6469,19.9999,0.00087661,1366.8,0.000219153,341.701,""
405703,25.6537,19.9998,0.00087378,1367.63,0.000218445,341.908,""
406857,25.6267,20.0002,0.000869479,1368.64,0.00021737,342.159,""
407401,25.6654,19.9999,0.00086778,1369.11,0.000216945,342.278,""
408485,25.6887,19.9998,0.000864302,1370.05,0.000216075,342.512,""
410084,25.6919,19.9997,0.000858954,1371.43,0.000214738,342.856,""
410805,25.7024,19.9999,0.000856443,1372.04,0.000214111,343.011,""
411641,25.7148,19.9996,0.000854081,1372.76,0.00021352,343.19,""
412343,25.6997,19.9998,0.000851692,1373.36,0.000212923,343.34,""
413498,25.7135,19.9997,0.000847867,1374.34,0.000211967,343.585,""
414479,25.6778,20,0.00084493,1375.17,0.000211233,343.793,""
415411,25.6259,20,0.000842313,1375.96,0.000210578,343.989,""
416419,25.6282,19.9998,0.000838882,1376.8,0.00020972,344.201,""
417395,25.6311,19.9997,0.000835794,1377.62,0.000208949,344.405,""
418190,25.5003,19.9998,0.000833539,1378.29,0.000208385,344.571,""
418953,25.5939,19.9995,0.000831211,1378.92,0.000207803,344.73,""
419756,25.6588,19.9998,0.000828714,1379.59,0.000207179,344.897,""
420765,25.4466,19.9998,0.000825565,1380.42,0.000206391,345.105,""
421722,25.5516,19.9995,0.000822785,1381.21,0.000205696,345.302,""
422537,25.5879,19.9998,0.000820391,1381.88,0.000205098,345.47,""
423362,25.5887,19.9997,0.000818201,1382.56,0.00020455,345.639,""
424043,25.5823,19.9996,0.000815999,1383.11,0.000204,345.778,""
424729,25.5594,20.0004,0.00081363,1383.67,0.000203408,345.918,""
425370,25.6024,20,0.00081203,1384.19,0.000203007,346.048,""
426280,25.5906,20,0.000809484,1384.93,0.000202371,346.233,""
426916,25.5304,19.9996,0.000807747,1385.44,0.000201937,346.361,""
427938,25.6865,19.9999,0.000804385,1386.27,0.000201096,346.567,""
428637,25.5442,20.0002,0.000802429,1386.83,0.000200607,346.707,""
429723,25.5127,20,0.00079911,1387.7,0.000199777,346.925,""
430741,25.7593,19.9998,0.000796359,1388.51,0.00019909,347.128,""
431647,25.5829,20.0001,0.000793404,1389.23,0.000198351,347.308,""
432604,25.5513,19.9998,0.000790893,1389.99,0.000197723,347.497,""
433259,25.4284,20,0.000788785,1390.51,0.000197196,347.627,""
433989,25.5668,19.9998,0.0007866,1391.08,0.00019665,347.77,""
435128,25.584,20,0.000783194,1391.98,0.000195798,347.994,""
435651,25.5772,19.9997,0.000782054,1392.39,0.000195513,348.096,""
436286,25.5573,19.9997,0.000780116,1392.88,0.000195029,348.22,""
437373,25.5283,20.0006,0.000777177,1393.73,0.000194294,348.432,""
437984,25.5669,19.9999,0.000775632,1394.2,0.000193908,348.551,""
438819,25.5175,20,0.000772977,1394.85,0.000193244,348.712,""
439944,25.5545,20.0003,0.000770051,1395.72,0.000192513,348.929,""
440915,25.524,19.9999,0.000767321,1396.46,0.00019183,349.116,""
441449,25.5948,19.9998,0.000765774,1396.87,0.000191444,349.218,""
442069,25.5508,19.9997,0.000764231,1397.35,0.000191058,349.337,""
442661,25.6584,20.0003,0.000762549,1397.8,0.000190637,349.45,""
443746,25.5803,19.9998,0.000759949,1398.63,0.000189987,349.656,""
444479,25.7939,19.9998,0.000757565,1399.18,0.000189391,349.795,""
445242,25.6195,20,0.000754971,1399.76,0.000188743,349.939,""
446140,25.5548,19.9995,0.000752518,1400.44,0.00018813,350.109,""
446838,25.6705,19.9998,0.000750418,1400.96,0.000187605,350.24,""
447653,25.6203,19.9999,0.000747862,1401.57,0.000186966,350.392,""
448625,25.6513,19.9998,0.000744703,1402.3,0.000186176,350.574,""
449230,25.7372,20,0.000743352,1402.75,0.000185838,350.686,""
449845,25.5974,19.9999,0.000741283,1403.2,0.000185321,350.8,""
450611,25.5859,20,0.000739602,1403.77,0.0001849,350.942,""
451365,25.6809,19.9998,0.000737357,1404.33,0.000184339,351.082,""
452137,25.6637,20,0.000735337,1404.89,0.000183834,351.224,""
452669,25.6724,19.9996,0.000733533,1405.28,0.000183383,351.321,""
453235,25.6452,20,0.000732043,1405.7,0.000183011,351.425,""
453910,25.6812,19.9999,0.000730646,1406.19,0.000182661,351.548,""
454720,25.6655,19.9995,0.000728069,1406.78,0.000182017,351.696,""
455324,25.7568,19.9998,0.000726836,1407.22,0.000181709,351.806,""
456673,25.6083,20.0001,0.000723024,1408.2,0.000180756,352.05,""
457648,25.6874,19.9998,0.000720556,1408.91,0.000180139,352.226,""
458642,25.6069,20.0002,0.000717648,1409.62,0.000179412,352.405,""
459286,25.6795,20,0.000716058,1410.08,0.000179015,352.521,""
460135,25.8012,19.9996,0.000713419,1410.69,0.000178355,352.672,""
461325,25.7305,19.9997,0.000710236,1411.54,0.000177559,352.884,""
462239,25.7887,20,0.000707885,1412.18,0.000176971,353.046,""
462885,25.6673,19.9999,0.000706263,1412.64,0.000176566,353.16,""
463959,25.5881,20.0001,0.000703643,1413.4,0.000175911,353.349,""
464957,25.618,19.9998,0.000701046,1414.1,0.000175261,353.525,""
466482,25.5576,19.9998,0.000696458,1415.16,0.000174114,353.791,""
467310,25.5738,20.0006,0.000694397,1415.74,0.000173599,353.935,""
468087,25.7199,19.9998,0.000692302,1416.28,0.000173076,354.07,""
468788,25.5545,19.9998,0.000690799,1416.76,0.0001727,354.191,""
469614,25.547,19.9999,0.000689004,1417.33,0.000172251,354.333,""
470418,25.5604,19.9999,0.000686696,1417.89,0.000171674,354.472,""
471208,25.5822,20.0001,0.000685129,1418.43,0.000171282,354.607,""
472092,25.622,20,0.000682619,1419.03,0.000170655,354.758,""
473070,25.6051,20.0001,0.000679846,1419.7,0.000169962,354.925,""
473875,25.6432,19.9998,0.000677711,1420.25,0.000169428,355.061,""
474976,25.6466,20.0003,0.000675227,1420.99,0.000168807,355.247,""
475912,25.6512,19.9997,0.000673102,1421.62,0.000168275,355.405,""
477389,25.6255,20.0001,0.00066958,1422.61,0.000167395,355.653,""
478175,25.6572,19.9995,0.000667434,1423.14,0.000166858,355.784,""
479060,25.6782,19.9995,0.000664917,1423.73,0.000166229,355.932,""
479816,25.7189,19.9997,0.000663473,1424.23,0.000165868,356.057,""
480456,25.6751,19.9991,0.000662158,1424.65,0.00016554,356.163,""
481907,25.6916,20,0.000658685,1425.61,0.000164671,356.403,""
482953,25.6354,19.9997,0.000656395,1426.3,0.000164099,356.575,""
483670,25.6782,20,0.000655109,1426.77,0.000163777,356.692,""
485053,25.6687,19.9999,0.000651763,1427.67,0.000162941,356.918,""
486258,25.6935,19.9999,0.000649114,1428.46,0.000162278,357.114,""
486948,25.6783,19.9999,0.0006475,1428.9,0.000161875,357.226,""
487689,25.6271,19.9999,0.000645982,1429.38,0.000161495,357.346,""
488730,25.6956,19.9998,0.000643672,1430.05,0.000160918,357.514,""
489499,25.7103,19.9999,0.000642034,1430.55,0.000160509,357.637,""
490317,25.7415,19.9995,0.000640371,1431.07,0.000160093,357.768,""
490997,25.7349,19.9997,0.000638633,1431.51,0.000159658,357.877,""
491608,25.6418,20.0007,0.000637504,1431.9,0.000159376,357.975,""
492354,25.5171,20.0003,0.000635583,1432.37,0.000158896,358.093,""
493242,25.4994,19.9998,0.000633599,1432.94,0.0001584,358.234,""
494130,25.5137,20.0002,0.000631587,1433.5,0.000157897,358.375,""
494887,25.5407,19.9999,0.00062988,1433.98,0.00015747,358.494,""
495933,25.5645,19.9997,0.000627179,1434.63,0.000156795,358.658,""
497019,25.5141,19.9998,0.000624854,1435.31,0.000156214,358.828,""
498058,25.5657,20,0.000622528,1435.96,0.000155632,358.99,""
498780,25.5818,20,0.000620883,1436.41,0.000155221,359.103,""
499692,25.5642,19.9999,0.000618879,1436.98,0.00015472,359.244,""
501011,25.6505,20.0001,0.000616495,1437.79,0.000154124,359.448,""
501853,25.6095,19.9997,0.000614883,1438.31,0.000153721,359.577,""
502657,26.2069,20.001,0.00061311,1438.8,0.000153278,359.701,""
503404,26.4608,20.0001,0.00061135,1439.26,0.000152837,359.815,""
503907,26.5084,19.9999,0.000610697,1439.57,0.000152674,359.892,""
504655,26.568,19.9997,0.000609242,1440.02,0.000152311,360.006,""
505515,26.4531,19.9994,0.000607833,1440.55,0.000151958,360.137,""
506472,26.4183,19.9996,0.00060557,1441.13,0.000151392,360.282,""
507259,26.4446,19.9999,0.000603927,1441.6,0.000150982,360.401,""
508000,26.3441,20,0.000602277,1442.05,0.000150569,360.512,""
508795,26.3936,19.9999,0.000600717,1442.53,0.000150179,360.632,""
509461,26.3716,19.9994,0.000599549,1442.93,0.000149887,360.732,""
510447,26.3656,19.9997,0.000597543,1443.52,0.000149386,360.879,""
511402,26.3927,19.9995,0.000595288,1444.09,0.000148822,361.022,""
512254,26.4681,20.0001,0.000593759,1444.59,0.00014844,361.148,""
512943,26.4266,19.9997,0.000592437,1445,0.000148109,361.251,""
513770,26.4213,20.0004,0.000590878,1445.49,0.00014772,361.373,""
514749,26.4319,19.9998,0.00058918,1446.07,0.000147295,361.517,""
515502,26.4628,20.0006,0.000587567,1446.51,0.000146892,361.628,""
516122,26.4905,19.9999,0.000586644,1446.88,0.000146661,361.719,""
516852,26.0771,19.9998,0.00058498,1447.3,0.000146245,361.826,""
517805,26.4052,20.0003,0.000582844,1447.86,0.000145711,361.965,""
518834,26.4527,19.9998,0.000580699,1448.46,0.000145175,362.115,""
519808,26.4379,20.0003,0.000578702,1449.02,0.000144675,362.256,""
520777,26.3977,19.9997,0.000576771,1449.58,0.000144193,362.396,""
521844,26.3765,20.0003,0.00057447,1450.2,0.000143618,362.55,""
522617,26.4825,19.9997,0.000572929,1450.64,0.000143232,362.66,""
523252,26.3524,19.9996,0.000571804,1451,0.000142951,362.751,""
523987,26.4501,19.9997,0.000570354,1451.42,0.000142588,362.856,""
524791,26.5007,19.9998,0.000568895,1451.88,0.000142224,362.971,""
525733,26.4143,20.0004,0.000567193,1452.42,0.000141798,363.104,""
526133,26.4509,19.9997,0.00056639,1452.64,0.000141597,363.161,""
526838,26.4358,20.0003,0.000564693,1453.04,0.000141173,363.261,""
527345,26.4875,20,0.000563762,1453.33,0.000140941,363.332,""
528064,26.5361,19.9994,0.000562395,1453.73,0.000140599,363.434,""
528748,26.5982,19.9998,0.000560857,1454.12,0.000140214,363.53,""
529363,26.5444,19.999,0.000559405,1454.46,0.000139851,363.616,""
530121,26.5687,19.9998,0.000557853,1454.89,0.000139463,363.722,""
531341,26.6124,19.9998,0.000554865,1455.57,0.000138716,363.891,""
532103,26.54,19.9998,0.000553821,1455.99,0.000138455,363.997,""
533094,26.5687,19.9997,0.000552004,1456.54,0.000138001,364.134,""
534098,26.5508,19.9995,0.000550042,1457.09,0.000137511,364.272,""
535085,26.5563,20,0.000548088,1457.63,0.000137022,364.408,""
536067,26.6266,19.9999,0.00054587,1458.17,0.000136467,364.542,""
536606,25.7042,19.999,0.000544924,1458.46,0.000136231,364.616,""
537450,25.552,19.9994,0.000543165,1458.92,0.000135791,364.73,""
538508,25.5822,19.9997,0.000540889,1459.49,0.000135222,364.874,""
539083,25.5813,19.9994,0.000539546,1459.81,0.000134886,364.951,""
539700,25.4909,19.9999,0.000538119,1460.14,0.00013453,365.035,""
540269,25.345,19.9994,0.000537056,1460.44,0.000134264,365.111,""
540981,25.4981,19.9997,0.00053523,1460.83,0.000133808,365.206,""
541684,25.4746,20,0.000534092,1461.2,0.000133523,365.3,""
542501,25.3438,19.9997,0.000532461,1461.64,0.000133115,365.409,""
543308,25.3586,19.9997,0.000530957,1462.07,0.000132739,365.517,""
544232,25.3294,20,0.000529157,1462.56,0.000132289,365.639,""
545360,25.2109,19.9991,0.000526753,1463.15,0.000131688,365.788,""
546249,25.2615,19.9998,0.000525001,1463.62,0.00013125,365.905,""
546907,25.3731,20.0001,0.000523743,1463.96,0.000130936,365.991,""
547964,25.1871,19.9997,0.000521965,1464.52,0.000130491,366.129,""
549101,25.4763,19.9996,0.000519692,1465.11,0.000129923,366.277,""
549749,25.4053,19.9994,0.000518594,1465.45,0.000129649,366.361,""
550358,25.3958,20,0.000517468,1465.76,0.000129367,366.44,""
551338,25.3769,19.9998,0.000515914,1466.27,0.000128979,366.567,""
552022,25.3288,19.9998,0.000514362,1466.62,0.000128591,366.655,""
552608,25.0733,19.9998,0.00051332,1466.92,0.00012833,366.73,""
553450,25.2457,19.9999,0.000511878,1467.35,0.000127969,366.838,""
554159,25.0582,19.9998,0.000510569,1467.71,0.000127642,366.929,""
555149,25.1102,19.9996,0.00050911,1468.22,0.000127278,367.055,""
556178,25.0362,19.9997,0.000507184,1468.74,0.000126796,367.185,""
557008,25.0177,20.0001,0.000505984,1469.16,0.000126496,367.291,""
558303,25.0581,19.9998,0.000503437,1469.82,0.000125859,367.454,""
559021,25.0424,19.9997,0.000502439,1470.18,0.00012561,367.544,""
560085,25.0377,19.9999,0.00050029,1470.71,0.000125073,367.678,""
561889,25.0311,19.9998,0.000497562,1471.61,0.00012439,367.903,""
562862,25.0185,19.9999,0.000495673,1472.09,0.000123918,368.023,""
563826,24.9643,19.9998,0.000494097,1472.57,0.000123524,368.143,""
564777,24.9777,20,0.000492447,1473.04,0.000123112,368.26,""
565715,24.9724,19.9999,0.000490644,1473.5,0.000122661,368.375,""
566817,24.9634,19.9989,0.00048889,1474.04,0.000122223,368.51,""
567947,24.9435,20.0001,0.000487075,1474.59,0.000121769,368.648,""
569130,24.9463,19.9999,0.000485299,1475.17,0.000121325,368.792,""
570312,24.9723,19.9999,0.0004832,1475.74,0.0001208,368.935,""
571297,24.968,19.9997,0.000481837,1476.22,0.000120459,369.054,""
572637,24.9388,19.9998,0.000479653,1476.86,0.000119913,369.215,""
573628,24.9394,20,0.000478432,1477.33,0.000119608,369.334,""
574944,24.9322,19.9995,0.000476379,1477.96,0.000119095,369.491,""
576140,24.932,19.9998,0.000474581,1478.53,0.000118645,369.633,""
577309,24.9247,20.0003,0.000472719,1479.08,0.00011818,369.771,""
578547,24.9198,19.9995,0.000470835,1479.67,0.000117709,369.917,""
579355,24.9208,20.0002,0.00046918,1480.05,0.000117295,370.012,""
580281,24.9246,19.9997,0.000467917,1480.48,0.000116979,370.121,""
581153,24.9543,19.9997,0.000466468,1480.89,0.000116617,370.222,""
582421,25.0306,19.9999,0.000464289,1481.48,0.000116072,370.37,""
583348,24.9487,19.9999,0.000462487,1481.91,0.000115622,370.477,""
584075,25.5067,20,0.000461428,1482.25,0.000115357,370.561,""
584834,25.6042,20.0001,0.000460379,1482.6,0.000115095,370.649,""
585708,25.5882,19.9997,0.000458855,1483,0.000114714,370.749,""
586445,25.6975,19.9998,0.000458144,1483.33,0.000114536,370.834,""
587394,25.6072,19.9994,0.000456642,1483.77,0.00011416,370.942,""
588231,25.8134,19.9996,0.00045533,1484.15,0.000113833,371.038,""
588980,25.6063,19.9998,0.000454348,1484.49,0.000113587,371.123,""
589574,25.8134,19.9996,0.0004535,1484.76,0.000113375,371.19,""
590314,25.7963,20.0004,0.000452132,1485.1,0.000113033,371.274,""
591037,25.8888,19.9998,0.000451068,1485.42,0.000112767,371.356,""
591910,25.9157,19.9999,0.000449938,1485.82,0.000112484,371.454,""
592739,25.8182,20.0002,0.000448708,1486.19,0.000112177,371.547,""
593261,25.9306,19.9996,0.000447834,1486.42,0.000111959,371.606,""
594147,25.5596,19.9998,0.00044653,1486.82,0.000111632,371.705,""
594713,25.8688,19.9996,0.000445734,1487.07,0.000111433,371.768,""
595375,25.9436,19.9998,0.000444855,1487.37,0.000111214,371.841,""
596316,25.9878,19.9998,0.000443171,1487.78,0.000110793,371.946,""
597074,25.9716,19.9996,0.000441923,1488.12,0.000110481,372.03,""
597905,25.9453,20.0002,0.000440848,1488.49,0.000110212,372.121,""
598973,25.9693,20.0001,0.000439366,1488.96,0.000109841,372.239,""
599762,25.9986,20.0005,0.000437974,1489.3,0.000109493,372.325,""
600734,25.9301,19.9998,0.000436367,1489.73,0.000109092,372.432,""
601543,26.0122,20.0001,0.00043509,1490.08,0.000108772,372.52,""
601941,25.9192,19.9996,0.000434328,1490.25,0.000108582,372.563,""
602536,26.0059,19.9999,0.000433577,1490.51,0.000108394,372.628,""
602893,25.8844,19.9999,0.00043301,1490.67,0.000108252,372.666,""
602894,25.8856,19.9999,NaN,NaN,NaN,NaN,"Ampoule removed"
602894,25.8873,19.9999,NaN,NaN,NaN,NaN,""