File: data/JAA_CAL349.csv
Summary
Name,"JAA_CAL349.rslt"
Start time,2023 Jun 06 - 12:14
End time,2023 Jun 13 - 12:52
Operator,"JAA"
Results file path,"C:\Users\ge65ley\Desktop\Calorimetry_Results\AXD\Results_files\JAA_CAL349.rslt"
General Experiment Info
Bath temperature,20Â°C
,Sample - 25336:5
Total mass,6g
Name,"JAA_CAL349"
,Component - OPC
Mass,4g
Name,"OPC"
ID,"Karlstadt CEM I 52.5N 12.10.21"

"Time","Temperature [AmbientT(Therm3T)]","Temperature [Temperature]","Heat flow [Signal]","Heat [Signal]","Normalized heat flow [Signal]","Normalized heat [Signal]","Time markers"
-4046.07,25.6019,19.9997,NaN,NaN,NaN,NaN,""
-4046.07,25.6019,19.9997,4.49321e-07,NaN,1.1233e-07,NaN,""
-4028.58,25.6349,19.9997,-1.34394e-07,NaN,-3.35985e-08,NaN,""
-4020.02,25.7687,19.9998,-3.30607e-07,NaN,-8.26518e-08,NaN,""
-4011.45,25.9025,19.9998,-4.76864e-07,NaN,-1.19216e-07,NaN,""
-4000.15,25.8017,19.9998,-6.67206e-07,NaN,-1.66801e-07,NaN,""
-3988.84,25.7009,19.9998,-1.93044e-07,NaN,-4.82611e-08,NaN,""
-3978.55,25.7126,19.9998,1.45421e-07,NaN,3.63553e-08,NaN,""
-3966.38,25.7265,19.9998,-4.12945e-07,NaN,-1.03236e-07,NaN,""
-3940.48,25.7561,19.9999,3.23659e-07,NaN,8.09146e-08,NaN,""
-3925.26,25.7735,19.9999,3.35335e-07,NaN,8.38337e-08,NaN,""
-3906.54,25.7703,19.9999,1.29055e-07,NaN,3.22636e-08,NaN,""
-3887.83,25.7654,19.9999,6.22006e-08,NaN,1.55502e-08,NaN,""
-3840.29,25.7527,20,1.59212e-07,NaN,3.9803e-08,NaN,""
-3812.57,25.7453,20,-5.3427e-07,NaN,-1.33568e-07,NaN,""
-3802.23,25.7426,20,6.14158e-07,NaN,1.5354e-07,NaN,""
-3789.58,25.7438,20.0001,4.58569e-07,NaN,1.14642e-07,NaN,""
-3776.93,25.7687,20.0001,3.0298e-07,NaN,7.57451e-08,NaN,""
-3715.28,25.89,20.0001,2.02177e-07,NaN,5.05442e-08,NaN,""
-3690.66,25.817,20.0002,1.61921e-07,NaN,4.04803e-08,NaN,""
-3669.74,25.771,20.0002,-1.39083e-08,NaN,-3.47707e-09,NaN,""
-3626.69,25.8289,20.0002,-3.75818e-07,NaN,-9.39545e-08,NaN,""
-3616.93,25.821,20.0003,-3.20604e-07,NaN,-8.01509e-08,NaN,""
-3530,25.7504,19.9999,3.27268e-07,NaN,8.1817e-08,NaN,""
-3472.31,25.7043,19.9997,3.36624e-08,NaN,8.41561e-09,NaN,""
-3414.61,25.6964,19.9998,-2.59943e-07,NaN,-6.49858e-08,NaN,""
-3350.63,25.6877,19.9998,-3.77164e-07,NaN,-9.42909e-08,NaN,""
-3341.9,25.6865,19.9998,-3.93156e-07,NaN,-9.82891e-08,NaN,""
-3324.42,25.6841,19.9998,-8.63657e-07,NaN,-2.15914e-07,NaN,""
-3259.48,25.7408,19.9997,-1.75431e-07,NaN,-4.38579e-08,NaN,""
-3211.94,25.8026,19.9998,3.28409e-07,NaN,8.21022e-08,NaN,""
-3194.35,25.7941,20.0001,5.14813e-07,NaN,1.28703e-07,NaN,""
-3193.35,25.7934,20.0001,5.255e-07,NaN,1.31375e-07,NaN,""
-3175.76,25.7811,20.0002,1.98018e-07,NaN,4.95046e-08,NaN,""
-3144.52,25.7592,19.9999,-3.83542e-07,NaN,-9.58855e-08,NaN,""
-3127.49,25.7472,20.0002,-1.18114e-07,NaN,-2.95286e-08,NaN,""
-3110.87,25.7356,20.0005,7.03618e-07,NaN,1.75904e-07,NaN,""
-3094.57,25.7242,20.0003,4.17072e-07,NaN,1.04268e-07,NaN,""
-3078.27,25.7127,20.0002,1.30525e-07,NaN,3.26314e-08,NaN,""
-3055.22,25.6966,20,-7.36963e-08,NaN,-1.84241e-08,NaN,""
-3034.9,25.6929,20.0001,-1.42914e-07,NaN,-3.57286e-08,NaN,""
-3014.21,25.6945,20.0003,5.13906e-07,NaN,1.28477e-07,NaN,""
-3003.29,25.6953,20.0002,2.11457e-07,NaN,5.28643e-08,NaN,""
-2992.37,25.6961,20.0001,-9.09916e-08,NaN,-2.27479e-08,NaN,""
-2974.21,25.6974,19.9998,4.10357e-07,NaN,1.02589e-07,NaN,""
-2965.8,25.6981,19.9998,1.25678e-07,NaN,3.14196e-08,NaN,""
-2957.4,25.6987,19.9998,-1.59e-07,NaN,-3.97499e-08,NaN,""
-2939.29,25.7,19.9999,7.21647e-07,NaN,1.80412e-07,NaN,""
-2924.48,25.7011,19.9999,7.68818e-08,NaN,1.92204e-08,NaN,""
-2916.83,25.696,19.9999,2.65754e-07,NaN,6.64385e-08,NaN,""
-2908.24,25.6902,20,5.17363e-07,NaN,1.29341e-07,NaN,""
-2899.65,25.6843,19.9999,3.47847e-07,NaN,8.69618e-08,NaN,""
-2889.04,25.6771,19.9997,3.47645e-08,NaN,8.69111e-09,NaN,""
-2875.51,25.668,19.9996,3.25933e-07,NaN,8.14832e-08,NaN,""
-2863.98,25.6602,19.9994,-1.9977e-07,NaN,-4.99425e-08,NaN,""
-2850.98,25.6514,19.9994,4.29636e-08,NaN,1.07409e-08,NaN,""
-2837.98,25.6426,19.9995,2.85697e-07,NaN,7.14243e-08,NaN,""
-2827,25.6734,19.9995,-1.84604e-08,NaN,-4.61511e-09,NaN,""
-2816.02,25.7104,19.9996,-3.22618e-07,NaN,-8.06545e-08,NaN,""
-2782.62,25.823,19.9998,-2.51065e-07,NaN,-6.27661e-08,NaN,""
-2765.04,25.7784,19.9998,-3.70364e-07,NaN,-9.2591e-08,NaN,""
-2726.35,25.6741,19.9998,-6.71363e-07,NaN,-1.67841e-07,NaN,""
-2696.02,25.6957,19.9999,-5.65555e-08,NaN,-1.41389e-08,NaN,""
-2690.64,25.6995,19.9999,-5.12217e-09,NaN,-1.28054e-09,NaN,""
-2679.35,25.7075,19.9996,-4.0684e-07,NaN,-1.0171e-07,NaN,""
-2672.07,25.7127,19.9995,-2.7232e-08,NaN,-6.808e-09,NaN,""
-2658.98,25.722,19.9993,-1.14335e-07,NaN,-2.85837e-08,NaN,""
-2641.83,25.7342,19.9994,-2.28461e-07,NaN,-5.71153e-08,NaN,""
-2617.63,25.7515,19.9995,2.19617e-07,NaN,5.49042e-08,NaN,""
-2593.63,25.7686,19.9996,-3.28406e-07,NaN,-8.21015e-08,NaN,""
-2582.87,25.7735,19.9997,-4.3954e-09,NaN,-1.09885e-09,NaN,""
-2572.12,25.7587,19.9998,3.19615e-07,NaN,7.99038e-08,NaN,""
-2546.52,25.7235,19.9999,-2.08448e-07,NaN,-5.21121e-08,NaN,""
-2535.72,25.7086,19.9999,1.22881e-07,NaN,3.07201e-08,NaN,""
-2524.91,25.6937,19.9998,4.5421e-07,NaN,1.13552e-07,NaN,""
-2512.93,25.6772,19.9998,2.17398e-07,NaN,5.43495e-08,NaN,""
-2502.18,25.7017,19.9998,3.82278e-08,NaN,9.55695e-09,NaN,""
-2464.8,25.7868,19.9997,3.16967e-07,NaN,7.92419e-08,NaN,""
-2439.5,25.7579,19.9997,-5.28444e-08,NaN,-1.32111e-08,NaN,""
-2424.24,25.6886,19.9998,-2.75891e-07,NaN,-6.89728e-08,NaN,""
-2414.19,25.6905,19.9999,-4.22656e-07,NaN,-1.05664e-07,NaN,""
-2405.1,25.6921,19.9999,4.4154e-07,NaN,1.10385e-07,NaN,""
-2393.51,25.6942,20,3.32543e-08,NaN,8.31357e-09,NaN,""
-2376.26,25.6973,20,3.78166e-07,NaN,9.45415e-08,NaN,""
-2359.01,25.7005,20,7.23078e-07,NaN,1.8077e-07,NaN,""
-2340.38,25.7038,20,-1.20124e-07,NaN,-3.00311e-08,NaN,""
-2331.11,25.7055,19.9999,2.11812e-07,NaN,5.2953e-08,NaN,""
-2312.32,25.7089,19.9999,-1.80161e-08,NaN,-4.50403e-09,NaN,""
-2304.74,25.7103,19.9999,5.35983e-07,NaN,1.33996e-07,NaN,""
-2291.82,25.7126,19.9998,-5.97505e-08,NaN,-1.49376e-08,NaN,""
-2287.8,25.7134,19.9998,1.83645e-07,NaN,4.59113e-08,NaN,""
-2283.77,25.7141,19.9998,4.27041e-07,NaN,1.0676e-07,NaN,""
-2268.44,25.7169,19.9999,-4.41657e-07,NaN,-1.10414e-07,NaN,""
-2257.49,25.7189,19.9999,1.2747e-07,NaN,3.18676e-08,NaN,""
-2247.07,25.7207,19.9999,1.71054e-08,NaN,4.27634e-09,NaN,""
-2212.01,25.7271,20,NaN,NaN,NaN,NaN,""
-2176.61,25.7335,19.9997,NaN,NaN,NaN,NaN,""
-2147.66,25.7361,19.9999,NaN,NaN,NaN,NaN,""
-2118.72,25.7289,20,NaN,NaN,NaN,NaN,""
-2056.52,25.7134,19.9994,NaN,NaN,NaN,NaN,""
-1979.95,25.6943,19.9999,NaN,NaN,NaN,NaN,""
-1882.44,25.7132,19.9999,NaN,NaN,NaN,NaN,""
-1754.27,25.7538,19.9998,NaN,NaN,NaN,NaN,""
-1583.14,25.6982,19.9998,NaN,NaN,NaN,NaN,""
-1489.83,25.7235,19.9998,NaN,NaN,NaN,NaN,""
-1396.51,25.7487,19.9998,NaN,NaN,NaN,NaN,""
-1284.94,25.7231,19.9999,NaN,NaN,NaN,NaN,""
-1229.54,25.7104,20,NaN,NaN,NaN,NaN,""
-1154.12,25.6931,19.9995,NaN,NaN,NaN,NaN,""
-1134.06,25.6932,19.9999,NaN,NaN,NaN,NaN,""
-1114,25.7053,20.0002,NaN,NaN,NaN,NaN,""
-1061.55,25.7369,19.9994,NaN,NaN,NaN,NaN,""
-1002.54,25.7725,19.9999,NaN,NaN,NaN,NaN,""
-945.001,25.8071,19.9999,NaN,NaN,NaN,NaN,""
-904.626,25.7854,19.9999,NaN,NaN,NaN,NaN,""
-864.252,25.7636,20.0003,NaN,NaN,NaN,NaN,""
-837.763,25.7993,20.0003,NaN,NaN,NaN,NaN,""
-803.452,25.8455,19.9999,NaN,NaN,NaN,NaN,""
-773.025,25.6757,19.9999,NaN,NaN,NaN,NaN,""
-756.751,25.7225,19.9998,NaN,NaN,NaN,NaN,""
-738.5,25.7988,19.9998,NaN,NaN,NaN,NaN,""
-677.297,25.7887,19.9997,NaN,NaN,NaN,NaN,""
-617.862,25.7789,20,NaN,NaN,NaN,NaN,""
-533.05,25.7649,19.9999,NaN,NaN,NaN,NaN,""
-492.752,25.7583,20.0007,NaN,NaN,NaN,NaN,""
-449.777,25.7512,20.0011,NaN,NaN,NaN,NaN,""
-415.757,25.7455,20.0004,NaN,NaN,NaN,NaN,""
-324.007,25.7304,20.0007,NaN,NaN,NaN,NaN,""
-260.648,25.7247,20.0005,NaN,NaN,NaN,NaN,""
-197.289,25.7209,20.0003,NaN,NaN,NaN,NaN,""
-121.452,25.7163,19.9999,NaN,NaN,NaN,NaN,""
-39.5114,25.7113,19.9999,NaN,NaN,NaN,NaN,""
-20.32,25.8211,19.9999,NaN,NaN,NaN,NaN,""
-6.71842,25.5474,19.9999,NaN,NaN,NaN,NaN,""
16.8665,25.6411,19.9999,NaN,NaN,NaN,NaN,""
63.3675,26.0395,19.9999,NaN,NaN,NaN,NaN,""
99.0218,25.7911,19.9999,NaN,NaN,NaN,NaN,""
145.896,25.8814,19.9999,NaN,NaN,NaN,NaN,""
187.43,25.7769,20,NaN,NaN,NaN,NaN,""
217.852,25.8335,20,NaN,NaN,NaN,NaN,""
236.45,25.5984,20,NaN,NaN,NaN,NaN,""
277.528,25.8729,20,NaN,NaN,NaN,NaN,""
301.677,26.0431,20,NaN,NaN,NaN,NaN,""
325.553,25.8331,20,NaN,NaN,NaN,NaN,""
344.18,25.728,20,NaN,NaN,NaN,NaN,""
385.522,25.8272,20.0001,NaN,NaN,NaN,NaN,""
501.227,25.7607,20.0002,NaN,NaN,NaN,NaN,""
530.095,25.7441,19.9997,NaN,NaN,NaN,NaN,""
545.989,25.7469,19.9997,NaN,NaN,NaN,NaN,""
633.647,25.7626,19.9999,NaN,NaN,NaN,NaN,""
651.75,25.7695,19.9997,NaN,NaN,NaN,NaN,""
669.852,25.777,19.9995,NaN,NaN,NaN,NaN,""
724.696,25.7996,19.9999,NaN,NaN,NaN,NaN,""
732.899,25.6276,19.9999,NaN,NaN,NaN,NaN,""
761.31,25.7251,19.9999,NaN,NaN,NaN,NaN,""
789.722,25.8227,19.9998,NaN,NaN,NaN,NaN,""
828.795,25.8395,19.9997,NaN,NaN,NaN,NaN,""
867.868,25.8562,19.9997,NaN,NaN,NaN,NaN,""
933.471,25.7842,19.9997,NaN,NaN,NaN,NaN,""
961.45,25.765,20.0001,NaN,NaN,NaN,NaN,""
989.43,25.7656,20.0004,NaN,NaN,NaN,NaN,""
1059.4,25.767,19.9995,NaN,NaN,NaN,NaN,""
1089.59,25.7757,19.9996,NaN,NaN,NaN,NaN,""
1119.78,25.7843,19.9997,NaN,NaN,NaN,NaN,""
1135.93,25.972,19.9998,NaN,NaN,NaN,NaN,""
1143.65,25.685,19.9998,NaN,NaN,NaN,NaN,""
1159.44,25.778,19.9998,NaN,NaN,NaN,NaN,""
1175.23,25.871,19.9999,NaN,NaN,NaN,NaN,""
1195.15,26.1544,19.9999,NaN,NaN,NaN,NaN,""
1212.08,25.9141,20,NaN,NaN,NaN,NaN,""
1274.43,25.8967,20.0001,NaN,NaN,NaN,NaN,""
1308.56,25.8871,19.9996,NaN,NaN,NaN,NaN,""
1331.72,25.8793,19.9997,NaN,NaN,NaN,NaN,""
1354.87,25.861,19.9997,NaN,NaN,NaN,NaN,""
1387.01,25.8356,20.0005,NaN,NaN,NaN,NaN,""
1449.6,25.7862,19.9999,NaN,NaN,NaN,NaN,""
1509.16,25.7391,19.9999,NaN,NaN,NaN,NaN,""
1534.87,25.8235,19.9998,NaN,NaN,NaN,NaN,""
1560.59,25.9079,19.9994,NaN,NaN,NaN,NaN,""
1584.02,25.6671,19.9991,NaN,NaN,NaN,NaN,""
1602.51,25.8567,19.9994,NaN,NaN,NaN,NaN,""
1621.01,26.0464,19.9996,NaN,NaN,NaN,NaN,""
1640.34,25.9312,19.9999,NaN,NaN,NaN,NaN,""
1653.93,25.9041,20,NaN,NaN,NaN,NaN,""
1679.48,25.9919,20.0002,NaN,NaN,NaN,NaN,""
1724.08,25.8442,20.0004,NaN,NaN,NaN,NaN,""
1749.86,25.8137,20.0001,NaN,NaN,NaN,NaN,""
1782.27,25.8009,19.9996,NaN,NaN,NaN,NaN,""
1859.87,25.7702,19.9998,NaN,NaN,NaN,NaN,""
1905.35,25.8285,19.9999,NaN,NaN,NaN,NaN,""
1937.5,25.7421,19.9999,NaN,NaN,NaN,NaN,""
1950.48,25.6417,19.9999,NaN,NaN,NaN,NaN,""
1967.53,25.8613,20,NaN,NaN,NaN,NaN,""
2068.98,25.8272,20,NaN,NaN,NaN,NaN,"Reaction start. Measuring position. Signal correct"
2069.93,25.8269,20,0.000134798,0.000127717,3.36995e-05,3.19293e-05,""
2367.93,25.7277,19.9996,0.0121202,0.0834165,0.00303006,0.0208541,""
2398.43,25.8452,19.9998,0.121494,2.02582,0.0303735,0.506455,""
2431.93,25.8221,20,0.221622,7.92773,0.0554054,1.98193,""
2461.93,25.8344,19.9999,0.266647,15.3428,0.0666617,3.83569,""
2501.68,25.8362,19.9998,0.283871,26.4006,0.0709678,6.60015,""
2567.43,25.7654,19.9998,0.266326,44.6626,0.0665816,11.1657,""
2675.93,25.7833,20.0001,0.210111,70.5598,0.0525278,17.64,""
2779.02,25.7457,20.0002,0.160923,89.6008,0.0402309,22.4002,""
2863.68,25.7774,20.0001,0.128175,101.789,0.0320438,25.4473,""
2970.34,25.788,20,0.0960425,113.663,0.0240106,28.4158,""
3105.06,25.7963,19.9998,0.0670684,124.525,0.0167671,31.1314,""
3245.46,25.8546,20.0002,0.0467153,132.418,0.0116788,33.1044,""
3408.32,25.7829,19.9997,0.0314407,138.685,0.00786018,34.6711,""
3600.26,25.6995,19.9999,0.0205363,143.58,0.00513407,35.8951,""
3823.52,25.8074,20,0.0133877,147.287,0.00334692,36.8218,""
4138.08,25.7947,19.9999,0.00836311,150.604,0.00209078,37.6511,""
4516.62,25.7249,19.9998,0.00569579,153.195,0.00142395,38.2987,""
4954.46,25.7912,19.9999,0.00431319,155.349,0.0010783,38.8372,""
5515.44,25.7723,19.9999,0.00344948,157.499,0.000862369,39.3747,""
6359.31,25.7578,19.9998,0.00277381,160.095,0.000693452,40.0237,""
6939.44,26.0389,20.0001,0.00248346,161.615,0.000620866,40.4038,""
7754.21,25.823,19.9996,0.00219015,163.51,0.000547538,40.8775,""
8419.88,25.7805,20,0.00201405,164.907,0.000503512,41.2267,""
9010.2,25.8126,20.0001,0.00189078,166.059,0.000472696,41.5147,""
9559.16,25.8073,20.0004,0.00180811,167.073,0.000452029,41.7682,""
10202.7,25.9817,19.9995,0.00176792,168.22,0.000441981,42.0551,""
10606.2,25.8959,20.0003,0.00176054,168.932,0.000440134,42.233,""
11263.8,25.8435,19.9997,0.00174625,170.085,0.000436563,42.5214,""
11788.2,25.8917,19.9999,0.00172656,170.997,0.000431641,42.7491,""
12215.8,25.9463,20.0005,0.00170581,171.73,0.000426454,42.9326,""
12812.4,25.922,19.9999,0.001673,172.739,0.000418251,43.1847,""
13331,25.9869,19.9998,0.00164326,173.599,0.000410815,43.3996,""
13935.1,25.9953,19.9998,0.00161007,174.581,0.000402519,43.6453,""
14704.5,25.9365,20.0002,0.00157078,175.804,0.000392694,43.951,""
15241.2,26.2286,20.0001,0.00154538,176.641,0.000386346,44.1602,""
16021.8,26.3136,20.0001,0.00151166,177.834,0.000377916,44.4585,""
16463,26.0164,20.0003,0.00149405,178.497,0.000373512,44.6242,""
16887.9,26.0533,20.0003,0.00147923,179.128,0.000369807,44.7821,""
17481,26.0854,19.9997,0.00145917,179.999,0.000364792,44.9999,""
17964.4,26.2866,20,0.00144527,180.701,0.000361317,45.1754,""
18359.5,25.9888,19.9992,0.00143335,181.27,0.000358337,45.3175,""
18846.6,26.2153,20,0.00142068,181.965,0.00035517,45.4912,""
19395.2,26.0665,19.9996,0.00140848,182.741,0.00035212,45.6853,""
20049.9,26.1098,19.9998,0.00139617,183.659,0.000349042,45.9148,""
20780.4,25.9644,20,0.00138463,184.674,0.000346158,46.1685,""
21395,25.984,19.9996,0.00137561,185.522,0.000343901,46.3806,""
22322.6,25.8793,19.9998,0.00136772,186.794,0.00034193,46.6986,""
23137.2,25.7949,19.9995,0.00136678,187.908,0.000341696,46.9769,""
23757.6,25.959,19.9997,0.00137237,188.757,0.000343092,47.1892,""
24407.1,25.7509,19.9998,0.00138971,189.655,0.000347428,47.4139,""
25029.2,25.7661,19.9998,0.00137375,190.514,0.000343437,47.6286,""
25806.1,25.7732,20,0.00136342,191.577,0.000340854,47.8943,""
26401.8,25.738,19.9997,0.00135599,192.387,0.000338999,48.0968,""
27192.8,25.7113,19.9993,0.00135324,193.458,0.000338311,48.3645,""
27844,25.6363,19.9996,0.00135659,194.34,0.000339147,48.585,""
28554.6,25.6907,19.9999,0.00136379,195.307,0.000340947,48.8266,""
29420.6,25.6989,20,0.00137801,196.494,0.000344502,49.1234,""
30132.5,25.6815,19.9996,0.00139331,197.48,0.000348329,49.3699,""
30977.8,25.8068,20,0.0014159,198.667,0.000353974,49.6666,""
31663.1,25.7364,19.9999,0.00143745,199.645,0.000359363,49.9112,""
32347.4,25.5983,19.9997,0.00146183,200.636,0.000365458,50.159,""
33065,25.6386,20,0.00149111,201.695,0.000372778,50.4239,""
34063.8,25.6031,20.0001,0.00153618,203.206,0.000384045,50.8016,""
35067.2,25.6343,20.0002,0.00158841,204.774,0.000397103,51.1935,""
35930.8,25.6247,19.9999,0.00163875,206.166,0.000409688,51.5416,""
36547,25.5625,20.0002,0.00167853,207.188,0.000419633,51.797,""
37357.8,25.6639,19.9999,0.00173496,208.572,0.000433741,52.1429,""
37997.3,25.5692,20,0.00178512,209.697,0.000446279,52.4243,""
38698.9,25.5933,19.9997,0.00184332,210.97,0.00046083,52.7424,""
39591.9,25.7082,20,0.00192558,212.652,0.000481395,53.163,""
40352.5,25.5973,19.9998,0.00200216,214.145,0.000500541,53.5362,""
41132.8,25.626,20,0.00208819,215.739,0.000522047,53.9348,""
42061.5,25.6104,19.9997,0.00219953,217.729,0.000549884,54.4323,""
42671.3,25.618,20,0.00227986,219.095,0.000569964,54.7737,""
43252.1,25.6141,19.9994,0.002362,220.443,0.0005905,55.1107,""
43945.4,25.5867,19.9996,0.00246611,222.116,0.000616529,55.529,""
44688.5,25.6247,20,0.00258657,223.994,0.000646643,55.9984,""
45233.1,25.5497,20.0001,0.0026812,225.428,0.000670301,56.3569,""
45796.4,25.511,19.9999,0.00278356,226.967,0.000695889,56.7418,""
46449.9,25.667,19.9998,0.00290878,228.826,0.000727194,57.2066,""
47372.3,25.6329,19.9999,0.00309793,231.596,0.000774483,57.899,""
47999.2,25.5774,19.9997,0.00323549,233.58,0.000808872,58.395,""
48612.6,25.5708,20,0.00337439,235.607,0.000843597,58.9017,""
49177.3,25.4816,19.9998,0.00350786,237.55,0.000876964,59.3875,""
49893.6,25.5757,19.9998,0.00368484,240.125,0.000921209,60.0313,""
50684.5,25.5468,19.9998,0.00388698,243.119,0.000971746,60.7798,""
51158.3,25.5363,19.9999,0.00401192,244.991,0.00100298,61.2478,""
51842.8,25.5121,19.9997,0.0041977,247.799,0.00104942,61.9498,""
52622.6,25.4693,19.9999,0.00441613,251.158,0.00110403,62.7894,""
53697.6,25.4999,20.0002,0.00472654,256.071,0.00118163,64.0178,""
54274.1,25.4924,19.9997,0.0048965,258.844,0.00122413,64.711,""
55071.7,25.5494,19.9998,0.00513519,262.844,0.0012838,65.7111,""
55750.5,25.5024,19.9998,0.00534025,266.4,0.00133506,66.6,""
56457.5,25.4753,19.9998,0.00555571,270.252,0.00138893,67.5629,""
57615.2,25.4507,19.9999,0.00591019,276.889,0.00147755,69.2223,""
58020.5,25.4745,19.9994,0.00603323,279.309,0.00150831,69.8272,""
58855,25.5336,20.0002,0.00628786,284.454,0.00157196,71.1134,""
59567,25.582,19.9998,0.00650389,289.004,0.00162597,72.251,""
60116.3,25.4577,19.9994,0.0066706,292.623,0.00166765,73.1556,""
60972.5,25.4914,19.9996,0.00692561,298.444,0.0017314,74.6109,""
61902.6,25.5159,19.9998,0.00719685,305.012,0.00179921,76.2531,""
62507.7,25.4917,20.0001,0.00736895,309.418,0.00184224,77.3546,""
63120.7,25.504,20,0.00753775,313.988,0.00188444,78.4969,""
64286.3,25.4966,20,0.00784482,322.958,0.0019612,80.7394,""
65014.1,25.5155,20.0002,0.00802428,328.731,0.00200607,82.1828,""
65749,25.5459,19.9999,0.00819378,334.691,0.00204844,83.6727,""
66418.6,25.5162,20.0001,0.00833766,340.226,0.00208442,85.0565,""
67255,25.5065,19.9998,0.00851052,347.273,0.00212763,86.8183,""
67978.4,25.5078,20.0001,0.00864782,353.479,0.00216196,88.3698,""
68675.9,25.5013,20.0004,0.00877694,359.555,0.00219423,89.8888,""
69498.6,25.5465,20,0.00891354,366.834,0.00222838,91.7084,""
70464.3,25.5086,19.9998,0.00904508,375.507,0.00226127,93.8769,""
71144.3,25.5272,19.9997,0.00912015,381.685,0.00228004,95.4213,""
72019.2,25.5639,19.9995,0.0091882,389.696,0.00229705,97.424,""
72838.8,25.584,19.9997,0.00923137,397.245,0.00230784,99.3113,""
73361.6,25.5843,20.0005,0.00925075,402.077,0.00231269,100.519,""
74058.2,26.4238,19.9999,0.00926885,408.528,0.00231721,102.132,""
74815.8,26.4942,20.0008,0.00928394,415.556,0.00232098,103.889,""
75635.6,26.5703,19.9988,0.00929321,423.171,0.0023233,105.793,""
76209.1,26.6076,19.9999,0.00929556,428.501,0.00232389,107.125,""
76782.9,26.6718,20.0006,0.00929941,433.837,0.00232485,108.459,""
77455.4,26.6356,20,0.00929765,440.09,0.00232441,110.022,""
77955.6,26.6532,19.9999,0.00928524,444.738,0.00232131,111.185,""
78594.5,26.6231,19.9997,0.00926,450.663,0.002315,112.666,""
79760.6,26.6388,19.9996,0.00919399,461.424,0.0022985,115.356,""
80920.4,26.6296,19.9998,0.00911252,472.04,0.00227813,118.01,""
82027.5,26.6467,19.9999,0.00902833,482.08,0.00225708,120.52,""
82961.7,26.5091,19.9999,0.00895262,490.481,0.00223815,122.62,""
83629.8,26.6597,19.9997,0.00889654,496.444,0.00222414,124.111,""
84081.2,26.5407,19.9998,0.00885679,500.451,0.0022142,125.113,""
84994.1,26.697,19.9997,0.00877575,508.501,0.00219394,127.125,""
85650.6,26.4106,19.9994,0.00871251,514.241,0.00217813,128.56,""
86004.2,26.278,20,0.00868001,517.316,0.00217,129.329,""
86738.1,26.6017,20,0.00860868,523.66,0.00215217,130.915,""
87532.7,26.7943,19.9998,0.00852945,530.469,0.00213236,132.617,""
88639.6,26.7917,19.9997,0.00841838,539.849,0.0021046,134.962,""
89332.3,26.8135,20.0002,0.00834955,545.656,0.00208739,136.414,""
90268.2,26.8256,20.0002,0.00825488,553.426,0.00206372,138.357,""
91046.8,26.8166,19.9997,0.00817459,559.823,0.00204365,139.956,""
91913.9,26.5942,19.9998,0.00808413,566.872,0.00202103,141.718,""
92489.5,26.7821,19.9996,0.00802407,571.507,0.00200602,142.877,""
93172.7,26.8028,19.9998,0.00794788,576.965,0.00198697,144.241,""
94094.1,26.7501,19.9998,0.0078465,584.241,0.00196162,146.06,""
94605.1,26.6513,19.9996,0.00778827,588.236,0.00194707,147.059,""
95224.9,26.7213,20.0002,0.00772249,593.043,0.00193062,148.261,""
95728.3,26.7669,19.9992,0.00766747,596.917,0.00191687,149.229,""
96816.8,26.7378,19.9997,0.00755,605.199,0.0018875,151.3,""
97295.9,26.6784,19.9997,0.00749652,608.803,0.00187413,152.201,""
97900.5,26.5137,20,0.00743037,613.315,0.00185759,153.329,""
98603.3,26.2139,19.9998,0.00735202,618.509,0.00183801,154.627,""
99451.5,26.5341,20.0002,0.00725636,624.705,0.00181409,156.176,""
100194,26.5586,20.0003,0.00717102,630.062,0.00179276,157.515,""
100988,26.521,19.9999,0.00708221,635.721,0.00177055,158.93,""
101562,25.6616,19.999,0.00701778,639.769,0.00175444,159.942,""
102160,25.8282,19.9997,0.00695054,643.945,0.00173764,160.986,""
102692,26.1689,20.0001,0.00688994,647.627,0.00172249,161.907,""
103197,26.0329,19.9998,0.00683239,651.092,0.0017081,162.773,""
103771,25.7687,19.9995,0.00676924,654.995,0.00169231,163.749,""
104481,25.6466,20,0.00669288,659.771,0.00167322,164.943,""
105345,25.489,19.9997,0.00659884,665.512,0.00164971,166.378,""
106443,25.6836,19.9995,0.00647848,672.692,0.00161962,168.173,""
106921,25.5412,19.9998,0.00642754,675.778,0.00160688,168.945,""
107577,25.4952,19.9994,0.00635639,679.971,0.0015891,169.993,""
108159,25.6261,19.9999,0.00629406,683.654,0.00157352,170.913,""
108833,25.5294,19.9999,0.00622276,687.869,0.00155569,171.967,""
109631,25.544,19.9998,0.00613733,692.805,0.00153433,173.201,""
110400,25.5472,20,0.00605753,697.493,0.00151438,174.373,""
111036,25.4707,19.9997,0.00599073,701.325,0.00149768,175.331,""
111670,25.6939,19.9999,0.00592401,705.098,0.001481,176.275,""
112291,25.5276,20.0001,0.0058602,708.759,0.00146505,177.19,""
113011,25.6408,20.0001,0.00578656,712.952,0.00144664,178.238,""
113547,25.5607,19.9997,0.00573097,716.04,0.00143274,179.01,""
114251,25.7188,19.9999,0.00565831,720.05,0.00141458,180.013,""
115094,25.3833,19.9998,0.00557307,724.782,0.00139327,181.195,""
115878,25.3801,19.9996,0.0054947,729.118,0.00137367,182.279,""
116788,25.5705,20,0.00540595,734.081,0.00135149,183.52,""
117333,25.5258,19.9998,0.00535193,737.013,0.00133798,184.253,""
118079,25.4627,19.9997,0.005279,740.976,0.00131975,185.244,""
118647,25.571,19.9999,0.00522373,743.96,0.00130593,185.99,""
119399,25.2394,19.9998,0.00515183,747.86,0.00128796,186.965,""
120066,25.4925,20.0003,0.00508862,751.278,0.00127215,187.819,""
120619,25.4515,20.0001,0.00503573,754.074,0.00125893,188.518,""
121046,25.6128,20.0003,0.0049951,756.217,0.00124877,189.054,""
121940,25.2222,19.9997,0.00491053,760.647,0.00122763,190.162,""
122553,25.3253,19.9997,0.00485532,763.636,0.00121383,190.909,""
123503,25.2468,19.9998,0.00476916,768.208,0.00119229,192.052,""
124250,25.232,19.9997,0.0047026,771.747,0.00117565,192.937,""
125242,25.2385,19.9998,0.0046157,776.371,0.00115393,194.093,""
126026,25.251,19.9999,0.00454883,779.961,0.00113721,194.99,""
126636,25.3907,20.0002,0.00449552,782.72,0.00112388,195.68,""
127137,25.2912,20.0001,0.00445348,784.962,0.00111337,196.24,""
127823,25.2882,19.9999,0.00439638,787.998,0.0010991,196.999,""
128551,25.228,19.9997,0.0043377,791.175,0.00108443,197.794,""
129176,25.2053,20.0003,0.00428802,793.874,0.001072,198.468,""
129935,25.4037,19.9999,0.00422726,797.102,0.00105681,199.276,""
130752,25.2486,20.0004,0.00416503,800.53,0.00104126,200.133,""
131546,25.1765,19.9997,0.00410527,803.813,0.00102632,200.953,""
132389,25.1928,19.9994,0.00404319,807.248,0.0010108,201.812,""
133330,25.1966,19.9999,0.00397574,811.019,0.000993935,202.755,""
134003,25.2136,19.9999,0.00392778,813.681,0.000981946,203.42,""
134720,25.0704,19.9998,0.00387909,816.48,0.000969773,204.12,""
135344,25.0562,19.9996,0.00383622,818.887,0.000959055,204.722,""
136024,24.9572,19.9996,0.00379224,821.481,0.000948059,205.37,""
136790,25.053,19.9997,0.00374212,824.366,0.00093553,206.092,""
137408,25.115,20,0.00370244,826.665,0.00092561,206.666,""
138192,25.0746,20.0001,0.00365287,829.552,0.000913217,207.388,""
138765,25.0922,20,0.00361719,831.635,0.000904298,207.909,""
139364,25.0888,20.0002,0.00358141,833.788,0.000895351,208.447,""
140493,25.0654,19.9999,0.00351472,837.797,0.00087868,209.449,""
141454,25.0752,19.9997,0.00345863,841.147,0.000864658,210.287,""
142251,25.0453,19.9999,0.00341348,843.884,0.000853369,210.971,""
143003,25.0681,19.9996,0.00337198,846.436,0.000842995,211.609,""
143620,25.1069,19.9999,0.00333775,848.508,0.000834438,212.127,""
144298,25.0886,20.0001,0.00330236,850.759,0.00082559,212.69,""
144952,25.0645,20.0006,0.00326768,852.905,0.00081692,213.226,""
145645,25.1263,19.9996,0.00323182,855.157,0.000807956,213.789,""
146508,25.1164,19.9995,0.00318839,857.929,0.000797098,214.482,""
147069,25.1798,19.9999,0.00316077,859.71,0.000790192,214.927,""
147640,25.1135,19.9998,0.0031344,861.504,0.000783601,215.376,""
148320,25.1417,20.0008,0.00310318,863.627,0.000775794,215.907,""
149165,25.1644,20.0002,0.00306422,866.23,0.000766055,216.558,""
149923,25.1277,20,0.00302948,868.539,0.000757371,217.135,""
151003,25.1152,19.9995,0.00298132,871.787,0.000745331,217.947,""
151652,25.1054,19.9998,0.00295497,873.714,0.000738742,218.429,""
152641,25.0406,19.9998,0.00291497,876.614,0.000728744,219.154,""
153257,25.0527,19.9999,0.00288994,878.404,0.000722486,219.601,""
154229,25.1297,19.9998,0.00285308,881.194,0.000713271,220.298,""
155155,25.0564,20.0002,0.00281962,883.821,0.000704905,220.955,""
155792,25.0429,19.9999,0.00279634,885.61,0.000699085,221.403,""
156481,25.0541,19.9992,0.0027714,887.527,0.000692851,221.882,""
157242,25.1115,19.9998,0.0027461,889.626,0.000686526,222.406,""
158194,25.0934,19.9996,0.00271457,892.228,0.000678642,223.057,""
158805,25.1473,19.9996,0.00269536,893.879,0.000673839,223.47,""
159706,25.3488,20.0001,0.00266746,896.295,0.000666864,224.074,""
160595,25.2812,19.9997,0.00264172,898.654,0.000660431,224.664,""
161443,25.2649,19.9999,0.00261768,900.886,0.00065442,225.221,""
162112,25.164,19.9998,0.00259937,902.63,0.000649843,225.658,""
162794,25.1648,20.0004,0.00258109,904.397,0.000645272,226.099,""
163655,25.1191,19.9997,0.00255818,906.609,0.000639545,226.652,""
164248,25.1695,20.0006,0.00254267,908.12,0.000635667,227.03,""
164928,25.1876,19.9999,0.00252533,909.843,0.000631333,227.461,""
165767,25.2635,19.9999,0.00250285,911.952,0.000625713,227.988,""
166681,25.2683,20,0.00248139,914.232,0.000620347,228.558,""
167301,25.473,19.9998,0.00246654,915.766,0.000616634,228.941,""
167902,25.3264,19.9999,0.00245187,917.243,0.000612967,229.311,""
168765,25.2941,19.9997,0.00243325,919.35,0.000608313,229.838,""
169371,25.2893,20.0001,0.00242018,920.822,0.000605045,230.206,""
170031,25.4838,20.0001,0.00240619,922.415,0.000601547,230.604,""
170546,25.2306,19.9999,0.00239395,923.651,0.000598488,230.913,""
171425,25.1985,19.9999,0.00237658,925.748,0.000594145,231.437,""
172104,25.2469,19.9999,0.00236189,927.355,0.000590472,231.839,""
172860,25.2493,19.9999,0.00234717,929.135,0.000586793,232.284,""
173874,25.3231,20,0.00232574,931.506,0.000581434,232.876,""
174557,25.3595,19.9999,0.00231178,933.09,0.000577946,233.272,""
175309,25.2125,20,0.00229747,934.822,0.000574368,233.706,""
176087,25.2564,20,0.00228259,936.602,0.000570648,234.151,""
176959,25.3568,20,0.00226567,938.586,0.000566418,234.647,""
177581,25.2373,19.9998,0.00225326,939.992,0.000563314,234.998,""
178441,25.2507,19.9998,0.00223821,941.923,0.000559554,235.481,""
179027,25.2314,19.9996,0.00222848,943.232,0.00055712,235.808,""
179653,25.395,19.9998,0.00221745,944.624,0.000554362,236.156,""
180214,25.2402,19.9997,0.00220792,945.865,0.000551981,236.466,""
180885,25.174,20,0.00219608,947.342,0.000549019,236.835,""
181752,25.2002,19.9999,0.00218201,949.239,0.000545502,237.31,""
182551,25.1759,19.9998,0.00216707,950.977,0.000541768,237.744,""
183274,25.2716,20,0.00215489,952.539,0.000538723,238.135,""
184165,25.175,19.9993,0.00214137,954.454,0.000535343,238.613,""
184764,25.1629,19.9997,0.00213133,955.733,0.000532832,238.933,""
185531,25.1469,20,0.00212012,957.363,0.00053003,239.341,""
186160,25.1984,19.9997,0.00211033,958.695,0.000527583,239.674,""
186892,25.2878,20.0001,0.00209917,960.236,0.000524791,240.059,""
187673,25.2319,19.9993,0.00208683,961.869,0.000521707,240.467,""
188486,25.4055,19.9997,0.00207458,963.562,0.000518644,240.891,""
189519,25.292,19.9998,0.00205977,965.697,0.000514943,241.424,""
190150,25.2055,19.9995,0.00205058,966.994,0.000512645,241.748,""
191211,25.2531,20.0001,0.00203524,969.161,0.00050881,242.29,""
191903,25.2706,19.9997,0.00202584,970.565,0.000506461,242.641,""
192635,25.2529,19.9999,0.0020168,972.045,0.000504201,243.011,""
193609,25.2881,19.9999,0.00200371,974.005,0.000500928,243.501,""
194231,25.3551,20.0002,0.00199457,975.248,0.000498643,243.812,""
194779,25.3263,19.9998,0.00198824,976.338,0.000497061,244.084,""
195545,25.2924,20,0.00197773,977.857,0.000494434,244.464,""
196201,25.3375,19.9998,0.00196951,979.151,0.000492377,244.788,""
196840,25.299,19.9999,0.00196073,980.406,0.000490182,245.102,""
197666,25.3322,19.9998,0.00195217,982.023,0.000488044,245.506,""
198450,25.3806,19.9998,0.00194172,983.548,0.000485431,245.887,""
199135,25.3724,19.9997,0.00193384,984.876,0.000483459,246.219,""
199671,25.7895,20.0005,0.00192811,985.911,0.000482027,246.478,""
200210,26.2212,20.0003,0.00192056,986.948,0.00048014,246.737,""
200690,26.2121,19.9996,0.00191534,987.868,0.000478836,246.967,""
201362,26.1858,20.0004,0.00190851,989.154,0.000477128,247.288,""
201925,26.3072,20,0.00190181,990.226,0.000475452,247.556,""
202426,26.0385,19.9996,0.001897,991.177,0.00047425,247.794,""
203191,25.6314,19.9993,0.0018882,992.624,0.000472049,248.156,""
204005,25.79,20.0001,0.00187844,994.158,0.000469611,248.539,""
204622,25.7207,19.9999,0.00187136,995.315,0.000467839,248.829,""
205129,25.9774,20.0003,0.00186582,996.262,0.000466456,249.066,""
205696,25.618,19.9993,0.00185894,997.317,0.000464735,249.329,""
206340,25.9554,20,0.00185203,998.514,0.000463008,249.628,""
206767,25.7969,19.9997,0.00184682,999.302,0.000461704,249.826,""
207075,25.2271,19.9999,0.00184353,999.871,0.000460882,249.968,""
207585,25.5304,19.9997,0.00183871,1000.81,0.000459678,250.202,""
208063,25.9819,20,0.00183345,1001.69,0.000458362,250.422,""
208386,25.7366,19.9997,0.00182944,1002.28,0.000457361,250.57,""
208831,25.8069,19.9999,0.00182564,1003.09,0.000456409,250.773,""
209486,25.5145,19.9996,0.00181888,1004.29,0.00045472,251.071,""
209984,25.5107,19.9999,0.00181379,1005.19,0.000453448,251.298,""
210816,25.2204,19.9997,0.00180548,1006.7,0.00045137,251.674,""
211478,25.3918,20,0.00179854,1007.89,0.000449635,251.972,""
212138,25.309,19.9997,0.001792,1009.07,0.000447999,252.269,""
212888,25.3123,19.9998,0.00178535,1010.42,0.000446338,252.604,""
213839,25.3085,19.9998,0.00177513,1012.11,0.000443782,253.028,""
214743,25.3073,20,0.00176749,1013.71,0.000441873,253.428,""
215635,25.3129,19.9996,0.00175928,1015.28,0.000439821,253.821,""
216508,25.2976,19.9998,0.00175029,1016.82,0.000437573,254.204,""
217281,25.3134,20.0001,0.00174428,1018.17,0.000436069,254.542,""
218079,25.2531,19.9999,0.00173686,1019.56,0.000434216,254.889,""
218723,25.3276,19.9998,0.00173206,1020.67,0.000433015,255.168,""
219646,25.2874,19.9996,0.0017242,1022.27,0.000431049,255.567,""
220596,25.3347,19.9998,0.00171566,1023.9,0.000428915,255.975,""
221698,25.3396,20,0.00170747,1025.79,0.000426867,256.447,""
222513,25.3353,20.0001,0.00170031,1027.18,0.000425079,256.794,""
223267,25.3768,20,0.0016949,1028.46,0.000423725,257.114,""
223868,25.3314,19.9996,0.00169066,1029.47,0.000422665,257.368,""
224599,25.3234,19.9999,0.00168451,1030.71,0.000421129,257.676,""
225346,25.3289,19.9998,0.00167872,1031.96,0.000419679,257.99,""
226063,25.319,19.9998,0.00167231,1033.16,0.000418077,258.291,""
226774,25.2958,19.9998,0.00166809,1034.35,0.000417023,258.588,""
227436,25.2806,19.9998,0.00166194,1035.45,0.000415486,258.863,""
228203,25.3371,19.9998,0.00165652,1036.73,0.000414129,259.181,""
228911,25.3301,19.9998,0.00165144,1037.9,0.00041286,259.474,""
229741,25.2952,19.9994,0.00164538,1039.27,0.000411344,259.817,""
230779,25.3027,20.0002,0.00163754,1040.97,0.000409385,260.242,""
231580,25.3242,19.9997,0.00163345,1042.28,0.000408363,260.57,""
232355,25.1996,19.9998,0.00162706,1043.54,0.000406764,260.886,""
233119,25.2937,20.0004,0.00162286,1044.78,0.000405714,261.196,""
233791,25.3213,20.0001,0.00161756,1045.87,0.000404389,261.468,""
234625,25.4574,19.9997,0.00161184,1047.22,0.000402961,261.805,""
235339,25.3336,20,0.00160733,1048.37,0.000401833,262.092,""
236456,25.3429,19.9998,0.00159988,1050.16,0.00039997,262.54,""
237549,25.4506,20,0.00159392,1051.91,0.000398479,262.976,""
238445,25.3852,19.9997,0.00158788,1053.33,0.00039697,263.333,""
239079,25.4142,19.9996,0.00158347,1054.34,0.000395867,263.584,""
240219,25.4044,19.9997,0.00157758,1056.14,0.000394395,264.035,""
241179,25.3864,19.9999,0.00157228,1057.65,0.000393071,264.413,""
241879,25.4338,19.9996,0.00156905,1058.75,0.000392263,264.688,""
242866,25.4356,20.0001,0.00156333,1060.3,0.000390832,265.074,""
243493,26.1391,20.0002,0.0015599,1061.28,0.000389975,265.319,""
244079,26.1187,20.0002,0.00155608,1062.19,0.000389021,265.547,""
244874,26.2137,19.9998,0.00155219,1063.42,0.000388046,265.856,""
245878,26.2224,19.9994,0.00154807,1064.98,0.000387017,266.245,""
246406,26.2151,19.9997,0.0015456,1065.8,0.000386401,266.449,""
246983,26.1515,19.9997,0.00154124,1066.69,0.000385311,266.672,""
247807,26.2252,19.9998,0.00153752,1067.95,0.000384379,266.989,""
248415,26.1834,20.0002,0.0015342,1068.89,0.000383549,267.222,""
249419,26.25,19.9998,0.00152907,1070.43,0.000382268,267.607,""
250076,26.2366,19.9996,0.00152475,1071.43,0.000381186,267.857,""
250719,26.1827,20.0003,0.00152205,1072.41,0.000380513,268.102,""
251300,26.2157,20,0.00151942,1073.29,0.000379854,268.323,""
252047,26.194,19.9996,0.0015147,1074.42,0.000378675,268.606,""
252688,26.1548,20.0002,0.00151139,1075.39,0.000377848,268.849,""
253280,26.1652,19.9996,0.00150821,1076.29,0.000377053,269.072,""
254332,26.1852,20.0001,0.00150317,1077.87,0.000375793,269.468,""
254955,26.2331,19.9999,0.00150025,1078.81,0.000375062,269.702,""
255821,26.2074,19.9998,0.00149571,1080.11,0.000373928,270.026,""
256593,26.2204,19.9998,0.0014917,1081.26,0.000372925,270.314,""
257372,26.3403,19.9998,0.00148763,1082.42,0.000371908,270.604,""
257984,26.2437,19.9997,0.00148396,1083.33,0.000370989,270.832,""
258645,26.2248,19.9999,0.00148092,1084.31,0.000370231,271.077,""
259377,26.2705,19.9999,0.00147683,1085.39,0.000369208,271.347,""
260410,26.1586,19.9993,0.00147185,1086.91,0.000367963,271.728,""
261517,26.1143,19.9998,0.00146779,1088.54,0.000366946,272.135,""
262356,26.2399,20,0.00146351,1089.77,0.000365877,272.443,""
263022,26.18,19.9994,0.00146046,1090.74,0.000365116,272.686,""
263749,26.2417,20.0004,0.00145813,1091.81,0.000364532,272.951,""
264690,26.2281,19.9988,0.00145363,1093.17,0.000363407,273.294,""
265258,26.2443,20.0002,0.00145038,1094,0.000362594,273.5,""
265979,26.2782,20,0.00144771,1095.04,0.000361927,273.761,""
266712,26.2977,20.0004,0.00144421,1096.1,0.000361053,274.026,""
267305,26.2454,20.0005,0.00144126,1096.96,0.000360314,274.24,""
267994,26.3443,19.9998,0.00143841,1097.95,0.000359604,274.488,""
268891,26.3287,19.999,0.00143488,1099.24,0.00035872,274.81,""
269549,26.3182,19.9995,0.00143215,1100.18,0.000358038,275.046,""
270154,25.9626,20.0001,0.00142928,1101.05,0.000357319,275.263,""
270721,25.6382,19.9991,0.00142767,1101.86,0.000356917,275.465,""
271157,25.7631,20.0001,0.0014258,1102.48,0.000356449,275.621,""
271709,25.7792,19.9999,0.00142375,1103.27,0.000355938,275.817,""
272097,25.5157,19.9995,0.00142071,1103.82,0.000355177,275.955,""
272512,25.3926,19.9995,0.00141965,1104.41,0.000354912,276.103,""
273117,25.4947,19.9997,0.00141659,1105.27,0.000354149,276.317,""
273709,25.5812,19.9998,0.00141431,1106.11,0.000353576,276.527,""
274370,25.3159,19.9997,0.00141136,1107.04,0.00035284,276.76,""
274933,25.3245,20.0003,0.00140903,1107.83,0.000352259,276.958,""
275816,25.2915,19.9997,0.00140632,1109.08,0.000351581,277.269,""
276464,25.309,20.0001,0.00140342,1109.99,0.000350855,277.497,""
277500,25.3997,19.9998,0.00139995,1111.44,0.000349988,277.86,""
278776,25.3678,20,0.00139572,1113.22,0.000348929,278.305,""
279729,25.4257,19.9998,0.00139283,1114.55,0.000348208,278.638,""
280586,25.3448,19.9999,0.00138998,1115.74,0.000347496,278.936,""
281327,25.3104,19.9998,0.00138689,1116.77,0.000346722,279.193,""
282148,25.3584,19.9999,0.00138425,1117.91,0.000346064,279.478,""
283040,25.3728,19.9997,0.00138125,1119.14,0.000345314,279.786,""
284026,25.37,19.9999,0.00137811,1120.5,0.000344527,280.126,""
284895,25.3619,20.0001,0.00137495,1121.7,0.000343737,280.425,""
285728,25.4354,19.9999,0.00137332,1122.85,0.000343329,280.712,""
286469,25.425,19.9999,0.00137033,1123.86,0.000342582,280.965,""
287857,25.4114,20,0.00136674,1125.76,0.000341685,281.44,""
289064,25.3981,19.9997,0.00136301,1127.41,0.000340752,281.853,""
289771,25.501,19.9999,0.00136148,1128.37,0.00034037,282.093,""
290622,25.4161,19.9999,0.00135834,1129.53,0.000339585,282.382,""
291361,25.3483,19.9988,0.00135662,1130.53,0.000339154,282.633,""
292339,25.4009,20.0003,0.00135441,1131.86,0.000338603,282.965,""
293079,25.397,20.0001,0.00135251,1132.86,0.000338127,283.215,""
293877,25.4046,19.9999,0.00134981,1133.94,0.000337452,283.485,""
294824,25.3822,19.9998,0.00134806,1135.22,0.000337014,283.804,""
295488,25.3867,19.9998,0.00134614,1136.11,0.000336536,284.028,""
296081,25.4199,19.9999,0.00134391,1136.91,0.000335977,284.227,""
296739,25.4286,19.9997,0.00134263,1137.79,0.000335656,284.448,""
297304,25.3302,19.9998,0.00134136,1138.55,0.000335341,284.637,""
298014,25.4295,19.9999,0.0013393,1139.5,0.000334825,284.875,""
298747,25.4518,20.0001,0.00133661,1140.48,0.000334153,285.12,""
299531,25.4531,19.9999,0.00133441,1141.53,0.000333603,285.382,""
300296,25.3993,19.9997,0.0013327,1142.55,0.000333176,285.637,""
301013,25.373,19.9994,0.00133037,1143.5,0.000332592,285.876,""
301979,25.3918,19.9997,0.00132875,1144.79,0.000332187,286.197,""
302881,25.3881,19.9999,0.00132726,1145.98,0.000331816,286.496,""
303613,25.3712,19.9999,0.00132485,1146.95,0.000331213,286.739,""
304483,25.4282,19.9999,0.00132228,1148.11,0.00033057,287.027,""
305071,25.4178,19.9997,0.00132116,1148.88,0.000330291,287.221,""
305902,25.4729,19.9998,0.0013189,1149.98,0.000329724,287.495,""
306757,25.3847,19.9997,0.00131714,1151.11,0.000329286,287.777,""
307584,25.3186,19.9999,0.00131488,1152.2,0.000328719,288.049,""
308373,25.4233,19.9997,0.00131258,1153.23,0.000328145,288.308,""
309444,25.3248,20,0.00130994,1154.64,0.000327485,288.659,""
310496,25.4209,19.9995,0.00130678,1156.01,0.000326694,289.004,""
311236,25.4626,20,0.00130531,1156.98,0.000326327,289.245,""
311996,25.497,19.9996,0.00130345,1157.97,0.000325862,289.493,""
312860,25.4385,19.9997,0.00130091,1159.1,0.000325229,289.774,""
313671,25.3688,20,0.00129923,1160.15,0.000324809,290.038,""
314521,25.3488,19.9999,0.00129725,1161.25,0.000324312,290.314,""
315146,25.4305,19.9999,0.00129546,1162.06,0.000323865,290.516,""
315913,25.4142,19.9998,0.00129342,1163.06,0.000323354,290.765,""
316600,25.416,19.9997,0.00129255,1163.95,0.000323138,290.986,""
317121,25.4196,19.9999,0.00129115,1164.62,0.000322787,291.155,""
317921,25.4583,19.9999,0.00128826,1165.65,0.000322066,291.413,""
318551,25.4259,19.9997,0.00128708,1166.46,0.00032177,291.615,""
319304,25.4172,19.9998,0.00128495,1167.43,0.000321237,291.858,""
319943,25.4276,20.0005,0.00128322,1168.25,0.000320805,292.063,""
321045,25.4092,19.9997,0.00128108,1169.66,0.000320271,292.416,""
321888,25.4598,19.9999,0.00127905,1170.74,0.000319761,292.686,""
322728,25.4476,19.9997,0.00127653,1171.82,0.000319131,292.954,""
323465,25.4883,20,0.00127484,1172.76,0.00031871,293.189,""
324467,25.5057,19.9996,0.00127256,1174.03,0.00031814,293.508,""
325427,25.4611,19.9997,0.00126962,1175.25,0.000317405,293.813,""
326192,25.447,19.9999,0.00126883,1176.22,0.000317209,294.056,""
327226,25.4075,19.9999,0.00126606,1177.54,0.000316515,294.384,""
328211,25.4879,20.0002,0.00126329,1178.78,0.000315823,294.695,""
329073,25.4568,20,0.00126193,1179.87,0.000315482,294.967,""
329997,25.4937,20,0.00125945,1181.03,0.000314863,295.259,""
330767,25.5038,19.9999,0.00125849,1182,0.000314622,295.501,""
331470,25.5331,19.9998,0.00125575,1182.89,0.000313938,295.722,""
332330,25.4786,19.9998,0.00125413,1183.97,0.000313532,295.992,""
[...]
339050,25.5372,19.9995,0.00123751,1192.34,0.000309377,298.085,""
339760,25.5487,19.9999,0.00123554,1193.22,0.000308884,298.305,""
340529,25.4468,19.9999,0.00123393,1194.17,0.000308482,298.542,""
341289,25.5611,19.9999,0.00123261,1195.11,0.000308152,298.777,""
342191,25.5751,20,0.00123018,1196.22,0.000307544,299.054,""
342965,25.6134,19.9998,0.00122819,1197.17,0.000307047,299.292,""
343903,25.5604,20,0.00122543,1198.32,0.000306359,299.58,""
344701,25.6557,19.9999,0.00122334,1199.3,0.000305835,299.824,""
345311,25.5756,19.9995,0.00122154,1200.04,0.000305385,300.01,""
346073,25.4753,19.9993,0.00121987,1200.97,0.000304967,300.243,""
346876,25.7423,19.9997,0.00121816,1201.95,0.00030454,300.488,""
347575,25.5979,19.9998,0.00121598,1202.8,0.000303995,300.7,""
348315,25.7338,19.9998,0.00121463,1203.7,0.000303658,300.925,""
349290,25.5764,20,0.00121183,1204.88,0.000302959,301.221,""
350117,25.8194,20.0001,0.00120972,1205.89,0.00030243,301.471,""
350873,25.6009,20.0001,0.00120787,1206.8,0.000301968,301.7,""
351871,25.6293,19.9998,0.00120442,1208,0.000301106,302.001,""
352707,25.6214,19.9999,0.00120248,1209.01,0.000300619,302.252,""
353655,25.6306,19.9998,0.00120028,1210.15,0.000300069,302.537,""
354601,25.6725,20,0.00119758,1211.28,0.000299394,302.82,""
355378,25.7541,20,0.00119499,1212.21,0.000298747,303.053,""
356051,25.7252,19.9998,0.00119332,1213.01,0.000298331,303.254,""
356637,25.6322,20,0.00119206,1213.71,0.000298016,303.428,""
357427,25.8533,19.9999,0.00118996,1214.65,0.000297491,303.664,""
357975,25.7607,19.9994,0.00118776,1215.31,0.000296939,303.827,""
358609,25.6189,19.9998,0.00118687,1216.06,0.000296719,304.015,""
359520,25.5419,19.9997,0.00118412,1217.14,0.00029603,304.285,""
359989,25.6935,20.0001,0.00118304,1217.69,0.00029576,304.423,""
360434,25.8513,20,0.00118149,1218.22,0.000295372,304.555,""
361322,25.6509,19.9999,0.00117947,1219.27,0.000294868,304.817,""
362257,25.8057,20,0.001177,1220.37,0.000294251,305.093,""
362979,25.8127,20.0003,0.00117538,1221.22,0.000293845,305.305,""
363951,25.5908,20,0.00117262,1222.36,0.000293154,305.59,""
364540,25.6691,19.9999,0.00116992,1223.05,0.00029248,305.763,""
365294,25.7382,19.9989,0.0011686,1223.93,0.00029215,305.983,""
365793,25.5844,19.9998,0.00116737,1224.52,0.000291841,306.129,""
366539,25.7292,19.9999,0.00116597,1225.39,0.000291492,306.346,""
367337,25.6871,19.9999,0.00116375,1226.32,0.000290937,306.579,""
368218,25.7765,19.9999,0.001161,1227.34,0.00029025,306.835,""
369142,25.851,20.0003,0.00115885,1228.41,0.000289714,307.103,""
369855,25.6971,19.9996,0.00115672,1229.24,0.000289181,307.309,""
370673,25.7512,19.9999,0.00115437,1230.18,0.000288594,307.545,""
371231,25.8037,19.9997,0.00115272,1230.82,0.000288179,307.706,""
372036,25.7206,19.9997,0.00115074,1231.75,0.000287686,307.938,""
373050,25.7122,20.0002,0.00114806,1232.92,0.000287015,308.229,""
374009,25.677,19.9998,0.00114515,1234.02,0.000286288,308.504,""
375013,25.7084,20.0001,0.00114294,1235.17,0.000285735,308.792,""
375717,25.6443,19.9995,0.00114073,1235.97,0.000285182,308.992,""
376558,25.6642,19.9998,0.00113848,1236.93,0.000284619,309.232,""
377199,25.6832,20.0003,0.00113741,1237.66,0.000284353,309.415,""
377942,25.5317,20,0.00113436,1238.5,0.00028359,309.625,""
378592,25.6443,20,0.00113301,1239.24,0.000283252,309.81,""
379743,25.7263,19.9999,0.00113009,1240.54,0.000282521,310.135,""
380938,25.5903,20,0.00112693,1241.89,0.000281733,310.472,""
381632,25.6058,19.9994,0.00112495,1242.67,0.000281237,310.668,""
382727,25.6234,20,0.00112144,1243.9,0.00028036,310.975,""
383767,25.7279,19.9996,0.00111881,1245.07,0.000279702,311.267,""
384893,25.7092,19.9993,0.00111514,1246.32,0.000278786,311.581,""
385614,25.7641,19.9998,0.00111353,1247.13,0.000278381,311.782,""
386669,25.6976,19.9998,0.00111052,1248.3,0.000277631,312.075,""
387456,25.7156,19.9998,0.00110877,1249.17,0.000277194,312.294,""
388177,25.6603,19.9998,0.00110527,1249.97,0.000276317,312.493,""
389064,25.6935,19.9996,0.0011031,1250.95,0.000275774,312.738,""
390004,25.7466,19.9997,0.00110056,1251.99,0.00027514,312.997,""
390909,25.6061,19.9998,0.00109844,1252.98,0.00027461,313.246,""
391678,25.72,20.0001,0.00109616,1253.83,0.00027404,313.457,""
392482,25.6587,20.0001,0.00109296,1254.71,0.00027324,313.677,""
393350,25.6774,19.9998,0.00109126,1255.66,0.000272815,313.914,""
394829,25.781,20,0.00108669,1257.26,0.000271672,314.316,""
395918,25.6817,19.9998,0.00108401,1258.45,0.000271001,314.612,""
396815,25.661,20.0001,0.00108078,1259.42,0.000270194,314.855,""
398174,25.699,19.9998,0.00107605,1260.88,0.000269013,315.221,""
399196,25.6777,19.9999,0.00107341,1261.98,0.000268352,315.496,""
399858,25.6256,19.9998,0.00107155,1262.69,0.000267886,315.673,""
400691,25.65,19.9998,0.00106941,1263.58,0.000267353,315.896,""
401675,25.6858,20.0001,0.00106638,1264.63,0.000266595,316.159,""
402931,25.6508,19.9999,0.00106292,1265.97,0.000265729,316.493,""
403833,25.6193,19.9999,0.00106031,1266.93,0.000265078,316.732,""
404752,25.6389,19.9999,0.00105707,1267.9,0.000264267,316.976,""
405772,25.6501,19.9997,0.00105485,1268.98,0.000263713,317.245,""
406360,25.6362,19.9998,0.00105222,1269.6,0.000263054,317.399,""
406919,25.674,19.9997,0.00104993,1270.19,0.000262482,317.547,""
407641,25.6901,19.9999,0.00104827,1270.94,0.000262068,317.736,""
408228,25.6354,19.9999,0.00104656,1271.56,0.000261641,317.89,""
409530,25.6677,19.9998,0.00104257,1272.92,0.000260643,318.229,""
410154,25.675,20.0003,0.001041,1273.57,0.000260249,318.392,""
411025,25.6918,20.0001,0.00103838,1274.47,0.000259595,318.618,""
411734,25.6804,20.0001,0.00103679,1275.21,0.000259198,318.802,""
412763,25.7148,20.0004,0.00103329,1276.27,0.000258321,319.068,""
413753,25.6878,19.9995,0.00103024,1277.29,0.00025756,319.323,""
414657,25.6129,20.0004,0.00102767,1278.22,0.000256917,319.556,""
415431,25.6321,20.0006,0.00102572,1279.02,0.00025643,319.755,""
416269,25.6029,19.9999,0.00102264,1279.88,0.00025566,319.969,""
417328,25.6266,19.9996,0.00101928,1280.96,0.000254819,320.24,""
418282,25.6098,19.9998,0.00101597,1281.93,0.000253992,320.482,""
419095,25.5651,20.0003,0.00101403,1282.75,0.000253507,320.689,""
420330,25.5799,19.9995,0.00101019,1284,0.000252549,321.001,""
421117,25.5985,19.9999,0.00100776,1284.8,0.000251939,321.2,""
422116,25.5565,19.9997,0.00100487,1285.8,0.000251218,321.451,""
422915,25.5501,20.0002,0.00100263,1286.61,0.000250657,321.652,""
423876,25.6319,19.9997,0.000999768,1287.57,0.000249942,321.892,""
424776,25.544,20.0001,0.000995721,1288.47,0.00024893,322.116,""
425674,25.6386,19.9996,0.000993883,1289.36,0.000248471,322.34,""
426611,25.582,19.9993,0.000990995,1290.29,0.000247749,322.572,""
427459,25.5163,19.9996,0.00098806,1291.13,0.000247015,322.782,""
428222,25.5728,20.0001,0.000985567,1291.88,0.000246392,322.97,""
428930,25.5809,19.9996,0.000983521,1292.58,0.00024588,323.144,""
429631,25.5958,19.9998,0.000981132,1293.27,0.000245283,323.317,""
430409,25.6172,20,0.000978735,1294.03,0.000244684,323.507,""
431211,25.5668,19.9999,0.000977119,1294.81,0.00024428,323.703,""
432065,25.6331,20,0.000973909,1295.65,0.000243477,323.911,""
432872,25.5521,19.9998,0.000970829,1296.43,0.000242707,324.108,""
433962,25.5283,20,0.000967474,1297.49,0.000241868,324.372,""
434535,25.6241,19.9999,0.000965484,1298.04,0.000241371,324.51,""
435111,25.5872,19.9998,0.000964391,1298.6,0.000241098,324.649,""
435936,25.5946,20.0001,0.000961734,1299.39,0.000240433,324.848,""
436527,25.5515,19.9999,0.000959677,1299.96,0.000239919,324.99,""
437236,25.5991,19.9998,0.000957547,1300.64,0.000239387,325.16,""
437868,25.5878,20,0.000955837,1301.24,0.000238959,325.311,""
438772,25.5272,19.9998,0.000952397,1302.11,0.000238099,325.527,""
439737,25.5843,19.9999,0.00094906,1303.02,0.000237265,325.756,""
440446,25.6524,19.9998,0.000947322,1303.7,0.000236831,325.924,""
440908,25.6015,20.0001,0.000946002,1304.13,0.000236501,326.033,""
441458,25.5904,20.0001,0.000943265,1304.65,0.000235816,326.163,""
442374,25.7066,20.0001,0.000940906,1305.52,0.000235226,326.379,""
443179,25.6041,19.9999,0.000938395,1306.27,0.000234599,326.568,""
444143,25.5644,20,0.000935488,1307.18,0.000233872,326.794,""
444772,25.6635,19.9998,0.000932971,1307.76,0.000233243,326.941,""
445651,25.6751,19.9997,0.000930953,1308.58,0.000232738,327.146,""
446421,25.6504,20.0003,0.000928314,1309.3,0.000232078,327.325,""
447316,25.5966,19.9999,0.000925895,1310.13,0.000231474,327.532,""
448263,25.6543,20.0004,0.000922735,1311,0.000230684,327.751,""
449029,25.6316,20.0001,0.000920681,1311.71,0.00023017,327.928,""
449615,25.4823,20.0003,0.000919396,1312.25,0.000229849,328.062,""
450204,25.709,20,0.000917359,1312.79,0.00022934,328.197,""
451068,25.7111,19.9997,0.000914638,1313.58,0.00022866,328.395,""
451857,25.676,19.9999,0.000911698,1314.3,0.000227924,328.575,""
452465,25.7493,19.9994,0.000910513,1314.86,0.000227628,328.714,""
453110,25.6819,19.9993,0.000908706,1315.44,0.000227176,328.861,""
453789,25.5413,20.0001,0.000906981,1316.06,0.000226745,329.015,""
454486,25.7106,19.9996,0.000904855,1316.69,0.000226214,329.172,""
454997,25.6416,20.0006,0.000903904,1317.15,0.000225976,329.288,""
455584,25.7229,19.9998,0.000902173,1317.68,0.000225543,329.421,""
456286,25.6623,19.9997,0.00090011,1318.32,0.000225028,329.579,""
456987,25.657,20,0.000898399,1318.94,0.0002246,329.736,""
457811,25.7209,19.9996,0.000895025,1319.68,0.000223756,329.921,""
458679,25.6952,20,0.000893185,1320.46,0.000223296,330.115,""
459356,25.6837,19.9998,0.000891592,1321.06,0.000222898,330.266,""
460007,25.7195,19.9997,0.000890061,1321.64,0.000222515,330.411,""
460936,25.7188,20.0002,0.000887275,1322.47,0.000221819,330.617,""
461744,25.7396,19.9997,0.000884991,1323.19,0.000221248,330.797,""
462831,25.6588,19.9999,0.000882519,1324.15,0.00022063,331.037,""
463738,25.6641,20.0001,0.000880205,1324.95,0.000220051,331.236,""
464633,25.5169,19.9997,0.000878424,1325.73,0.000219606,331.433,""
465211,25.6542,19.9998,0.000875667,1326.24,0.000218917,331.56,""
466281,25.6179,19.9999,0.000873553,1327.17,0.000218388,331.794,""
467120,25.5472,19.9998,0.00087024,1327.91,0.00021756,331.977,""
467812,25.5076,19.9992,0.000868636,1328.51,0.000217159,332.127,""
468483,25.6034,19.9998,0.000866844,1329.09,0.000216711,332.273,""
469372,25.5121,19.9998,0.000865544,1329.86,0.000216386,332.465,""
470171,25.574,20.0001,0.000863719,1330.55,0.00021593,332.638,""
471227,25.6307,19.9999,0.000860391,1331.46,0.000215098,332.865,""
472101,25.6092,20,0.000858161,1332.21,0.00021454,333.053,""
472756,25.6246,20,0.000856383,1332.77,0.000214096,333.193,""
473620,25.6341,19.9988,0.000853858,1333.51,0.000213464,333.378,""
474616,25.649,20,0.000851924,1334.36,0.000212981,333.59,""
475858,25.6169,19.9996,0.000848891,1335.42,0.000212223,333.855,""
476890,25.6444,19.9998,0.000846333,1336.29,0.000211583,334.073,""
477927,25.637,20.0002,0.000843647,1337.17,0.000210912,334.292,""
478707,25.8132,19.9999,0.000841577,1337.83,0.000210394,334.457,""
479599,25.7227,20.0001,0.000838983,1338.58,0.000209746,334.644,""
480317,25.6682,19.9998,0.000836713,1339.18,0.000209178,334.794,""
481975,25.6948,19.9997,0.00083298,1340.56,0.000208245,335.141,""
482666,25.7307,20,0.000831305,1341.14,0.000207826,335.284,""
483494,25.649,19.9998,0.000829776,1341.82,0.000207444,335.456,""
484211,25.6375,19.9999,0.000827357,1342.42,0.000206839,335.605,""
485396,25.7528,20.0001,0.000824159,1343.4,0.00020604,335.849,""
486263,25.5721,19.9998,0.00082204,1344.11,0.00020551,336.028,""
487357,25.8285,19.9999,0.000819161,1345.01,0.00020479,336.252,""
488016,25.6873,19.9999,0.000817649,1345.55,0.000204412,336.387,""
488793,25.7069,20.0001,0.000815319,1346.18,0.00020383,336.546,""
489378,25.6869,20,0.000814043,1346.66,0.000203511,336.665,""
489996,25.7333,19.9998,0.000812505,1347.16,0.000203126,336.79,""
490673,25.671,19.9997,0.000810797,1347.71,0.000202699,336.928,""
491408,25.6605,19.9997,0.00080895,1348.31,0.000202238,337.077,""
492253,25.5528,19.9994,0.000806213,1348.99,0.000201553,337.247,""
493199,25.554,19.9996,0.000803773,1349.75,0.000200943,337.438,""
494254,25.5239,20.0003,0.000801973,1350.6,0.000200493,337.65,""
495656,25.532,19.9994,0.000797693,1351.72,0.000199423,337.93,""
496608,25.5132,20,0.000795361,1352.48,0.00019884,338.12,""
498502,25.6086,19.9998,0.000790222,1353.98,0.000197556,338.495,""
499129,25.581,19.9996,0.00078917,1354.48,0.000197292,338.619,""
500418,25.6003,19.9999,0.000786804,1355.49,0.000196701,338.873,""
501471,25.6237,20,0.000783358,1356.32,0.00019584,339.08,""
502248,25.5943,19.9997,0.000782007,1356.93,0.000195502,339.232,""
502759,26.4223,20.0011,0.000780504,1357.33,0.000195126,339.331,""
503415,26.4585,20.0001,0.000778932,1357.84,0.000194733,339.459,""
504182,26.5404,19.9999,0.00077708,1358.43,0.00019427,339.609,""
504894,26.4582,20.0006,0.000775871,1358.99,0.000193968,339.747,""
505788,26.4562,20.0007,0.000773319,1359.68,0.00019333,339.92,""
506767,26.1808,19.9998,0.000770674,1360.44,0.000192669,340.109,""
507316,26.2052,19.9997,0.000769399,1360.86,0.00019235,340.215,""
508527,26.3662,19.9999,0.00076668,1361.79,0.00019167,340.447,""
509109,26.4666,20,0.000765182,1362.23,0.000191295,340.558,""
510241,26.3939,19.9995,0.00076264,1363.1,0.00019066,340.775,""
511094,26.3883,19.9998,0.000759499,1363.75,0.000189875,340.937,""
511685,26.3583,20.0002,0.000757434,1364.2,0.000189358,341.049,""
512491,26.4522,20,0.00075531,1364.81,0.000188827,341.202,""
513457,26.3678,20,0.000752904,1365.54,0.000188226,341.384,""
514409,26.4206,19.9997,0.000749951,1366.25,0.000187488,341.563,""
515000,26.4674,19.9998,0.000748919,1366.69,0.00018723,341.673,""
515856,26.4292,19.9998,0.000747063,1367.33,0.000186766,341.834,""
516613,26.4042,20.0004,0.000745097,1367.9,0.000186274,341.975,""
517153,26.4365,19.9996,0.000742923,1368.3,0.000185731,342.075,""
517919,26.4692,19.9996,0.000741628,1368.87,0.000185407,342.217,""
518754,26.4545,19.9996,0.000738933,1369.49,0.000184733,342.372,""
519612,26.4161,19.9998,0.000737939,1370.12,0.000184485,342.53,""
520602,26.4388,20,0.000734629,1370.85,0.000183657,342.712,""
521166,26.4542,19.9997,0.000733114,1371.26,0.000183278,342.816,""
522008,26.4723,20.0001,0.000730858,1371.88,0.000182714,342.97,""
522444,26.366,20.0001,0.000729934,1372.2,0.000182484,343.05,""
523508,26.4201,19.9997,0.0007269,1372.97,0.000181725,343.243,""
524293,26.5318,20.0005,0.000724287,1373.54,0.000181072,343.386,""
525493,26.4671,20.0004,0.000722707,1374.41,0.000180677,343.603,""
526082,26.4204,19.9997,0.000721156,1374.84,0.000180289,343.709,""
526916,26.4786,20.0004,0.000718551,1375.44,0.000179638,343.859,""
527444,26.4105,20.0002,0.000716533,1375.82,0.000179133,343.954,""
528497,26.5631,19.9998,0.000714632,1376.57,0.000178658,344.143,""
529244,26.5183,20.0001,0.000713002,1377.1,0.000178251,344.276,""
530106,26.5654,19.9998,0.000710603,1377.72,0.000177651,344.429,""
531255,26.5405,19.9997,0.000707978,1378.53,0.000176995,344.633,""
532053,26.5333,19.9998,0.000706191,1379.1,0.000176548,344.774,""
532884,26.5328,19.9997,0.000704183,1379.68,0.000176046,344.92,""
533385,26.5782,19.9999,0.0007024,1380.03,0.0001756,345.008,""
534190,26.5401,19.9999,0.000700812,1380.6,0.000175203,345.15,""
535296,26.5764,19.9999,0.000698297,1381.37,0.000174574,345.343,""
536301,25.8024,19.9999,0.000696152,1382.07,0.000174038,345.518,""
536939,25.7159,19.9993,0.000694148,1382.52,0.000173537,345.629,""
537682,25.5384,19.9997,0.00069249,1383.03,0.000173123,345.758,""
538673,25.5496,19.9997,0.000690063,1383.72,0.000172516,345.929,""
539371,25.3957,19.9996,0.00068839,1384.2,0.000172098,346.049,""
540099,25.4501,19.9995,0.00068631,1384.7,0.000171578,346.174,""
540845,25.4381,20,0.000684752,1385.21,0.000171188,346.302,""
541747,25.3018,19.9999,0.000682759,1385.83,0.00017069,346.457,""
542375,25.2688,19.9998,0.00068155,1386.25,0.000170388,346.564,""
542955,25.3316,19.9992,0.000679944,1386.65,0.000169986,346.662,""
543774,25.2647,19.9999,0.000679046,1387.21,0.000169762,346.801,""
544436,25.2277,19.9998,0.000677444,1387.65,0.000169361,346.914,""
545606,25.1564,20,0.000674659,1388.45,0.000168665,347.111,""
546457,25.2549,20.0002,0.000672331,1389.02,0.000168083,347.255,""
547022,25.4592,19.9998,0.000671639,1389.4,0.00016791,347.35,""
547849,25.2259,20,0.000670686,1389.95,0.000167672,347.488,""
548680,25.2777,20,0.00066879,1390.51,0.000167197,347.627,""
549413,25.4488,20,0.000667592,1391,0.000166898,347.75,""
550296,25.3882,20.0003,0.000664817,1391.59,0.000166204,347.897,""
550907,25.4629,19.9997,0.000664369,1391.99,0.000166092,347.999,""
551545,25.2662,19.9997,0.000663628,1392.42,0.000165907,348.104,""
552070,25.3172,19.9999,0.000662419,1392.77,0.000165605,348.191,""
552796,25.2664,19.9995,0.000660344,1393.25,0.000165086,348.311,""
553872,25.0713,19.9999,0.000658347,1393.95,0.000164587,348.489,""
554754,25.0929,19.9998,0.000656613,1394.53,0.000164153,348.634,""
555859,25.0337,20.0003,0.000655025,1395.26,0.000163756,348.815,""
556606,25.03,19.9997,0.000653229,1395.75,0.000163307,348.937,""
557684,25.0239,19.9997,0.000650686,1396.45,0.000162672,349.113,""
558744,25.0531,19.9998,0.000648946,1397.14,0.000162236,349.285,""
559628,25.0223,19.9998,0.000647425,1397.71,0.000161856,349.428,""
560782,25.0316,19.9998,0.000645293,1398.46,0.000161323,349.615,""
562033,25.0361,20,0.000642788,1399.26,0.000160697,349.816,""
563453,25.0116,19.9999,0.000640775,1400.17,0.000160194,350.044,""
564751,24.989,20,0.00063816,1401,0.00015954,350.251,""
565690,24.921,19.9999,0.000636031,1401.6,0.000159008,350.401,""
566718,24.9655,19.9989,0.000633451,1402.26,0.000158363,350.564,""
567821,24.9508,19.9994,0.000632108,1402.95,0.000158027,350.738,""
568870,24.9529,19.9994,0.00063032,1403.62,0.00015758,350.904,""
570877,24.9616,20,0.000627089,1404.88,0.000156772,351.219,""
571688,24.9473,19.9999,0.00062513,1405.38,0.000156283,351.346,""
573144,24.9407,19.9999,0.000621887,1406.29,0.000155472,351.573,""
574326,24.9418,20,0.000620161,1407.03,0.00015504,351.757,""
575362,24.9395,19.9999,0.000616843,1407.67,0.000154211,351.917,""
576550,24.9201,19.9999,0.000616161,1408.4,0.00015404,352.1,""
577383,24.9424,20.0008,0.000613722,1408.91,0.00015343,352.228,""
578383,24.917,19.9997,0.000611186,1409.52,0.000152797,352.381,""
579495,24.9209,20,0.000608779,1410.2,0.000152195,352.551,""
580477,24.9155,19.9998,0.000607006,1410.8,0.000151751,352.7,""
581448,24.9392,19.9997,0.000604793,1411.39,0.000151198,352.847,""
582490,24.9724,20.0001,0.000602848,1412.02,0.000150712,353.004,""
583497,24.9592,19.9998,0.000602382,1412.62,0.000150596,353.156,""
584134,25.5291,20.0001,0.000601263,1413.01,0.000150316,353.252,""
585091,25.5916,20,0.00059924,1413.58,0.00014981,353.395,""
586089,25.7573,19.9995,0.000597735,1414.18,0.000149434,353.544,""
587081,25.6721,19.9998,0.000595937,1414.77,0.000148984,353.693,""
587889,25.7201,19.9998,0.000594795,1415.25,0.000148699,353.813,""
588617,25.6786,19.9998,0.000593443,1415.68,0.000148361,353.921,""
589258,25.587,20.0001,0.000591665,1416.06,0.000147916,354.016,""
590032,25.8063,19.9999,0.000590118,1416.52,0.00014753,354.13,""
590988,25.8381,19.9999,0.000587832,1417.08,0.000146958,354.271,""
592156,25.8944,19.9997,0.000585781,1417.77,0.000146445,354.442,""
593138,25.9166,20,0.000583453,1418.34,0.000145863,354.586,""
594131,25.8743,19.9996,0.000581947,1418.92,0.000145487,354.731,""
594706,25.8056,19.9997,0.000580271,1419.26,0.000145068,354.814,""
595917,25.9901,20.0001,0.000577635,1419.96,0.000144409,354.989,""
596534,25.9665,19.999,0.00057634,1420.31,0.000144085,355.078,""
597296,25.9938,20,0.000575881,1420.75,0.00014397,355.188,""
598149,26.0005,20.0001,0.000573303,1421.24,0.000143326,355.311,""
599164,25.9533,19.9992,0.000571012,1421.82,0.000142753,355.456,""
599942,25.9432,20.0003,0.000569454,1422.27,0.000142363,355.567,""
600830,25.9223,19.9995,0.000567541,1422.77,0.000141885,355.693,""
601869,25.7874,19.9995,0.000565708,1423.36,0.000141427,355.84,""
602666,25.9315,19.9998,0.000563534,1423.81,0.000140883,355.953,""
603041,NaN,NaN,0.000563522,1424.02,0.00014088,356.006,""
603041,NaN,NaN,NaN,NaN,NaN,NaN,"Ampoule removed"