File: data/JAA_CAL350.csv
Summary
Name,"JAA_CAL350.rslt"
Start time,2023 Jun 06 - 12:11
End time,2023 Jun 13 - 12:53
Operator,"JAA"
Results file path,"C:\Users\ge65ley\Desktop\Calorimetry_Results\AXD\Results_files\JAA_CAL350.rslt"
General Experiment Info
Bath temperature,20Â°C
,Sample - 25336:6
Total mass,6g
Name,"JAA_CAL350"
,Component - OPC
Mass,4g
Name,"OPC"
ID,"Karlstadt CEM I 52.5N 12.10.21"

"Time","Temperature [AmbientT(Therm3T)]","Temperature [Temperature]","Heat flow [Signal]","Heat [Signal]","Normalized heat flow [Signal]","Normalized heat [Signal]","Time markers"
-4181.28,25.672,19.9997,NaN,NaN,NaN,NaN,""
-4181.28,25.672,19.9997,4.77167e-07,NaN,1.19292e-07,NaN,""
-4154.94,25.6707,20,1.01243e-06,NaN,2.53108e-07,NaN,""
-4135.74,25.6697,20.0003,8.42065e-07,NaN,2.10516e-07,NaN,""
-4122.61,25.6691,20.0002,9.26233e-07,NaN,2.31558e-07,NaN,""
-4117.85,25.6689,20.0002,9.70553e-07,NaN,2.42638e-07,NaN,""
-4102.53,25.6681,20,5.10561e-07,NaN,1.2764e-07,NaN,""
-4081.69,25.6624,19.9999,6.35488e-07,NaN,1.58872e-07,NaN,""
-4060.84,25.6512,19.9998,7.60414e-07,NaN,1.90104e-07,NaN,""
-4032.81,25.667,19.9998,2.06045e-07,NaN,5.15113e-08,NaN,""
-4010.36,25.9435,19.9997,-2.37782e-07,NaN,-5.94456e-08,NaN,""
-4000.71,25.8222,19.9997,-3.85558e-07,NaN,-9.63895e-08,NaN,""
-3991.06,25.7009,19.9997,-1.88981e-07,NaN,-4.72452e-08,NaN,""
-3961.07,25.7243,19.9996,4.21797e-07,NaN,1.05449e-07,NaN,""
-3952.28,25.7324,19.9996,3.66008e-07,NaN,9.15021e-08,NaN,""
-3908.22,25.8043,20.0001,8.615e-08,NaN,2.15375e-08,NaN,""
-3880.72,25.8061,20.0001,-4.11777e-08,NaN,-1.02944e-08,NaN,""
-3844.27,25.7783,20.0001,4.64295e-07,NaN,1.16074e-07,NaN,""
-3815.16,25.7561,20,-4.69247e-07,NaN,-1.17312e-07,NaN,""
-3807.02,25.7498,20,5.30219e-07,NaN,1.32555e-07,NaN,""
-3755.4,25.8154,20,2.55557e-07,NaN,6.38891e-08,NaN,""
-3717.22,25.8898,20.0001,5.24327e-08,NaN,1.31082e-08,NaN,""
-3703.77,25.8796,20.0001,-1.9106e-08,NaN,-4.77651e-09,NaN,""
-3678.38,25.8603,20.0002,4.62381e-07,NaN,1.15595e-07,NaN,""
-3658.41,25.8451,20.0002,-2.67504e-07,NaN,-6.68761e-08,NaN,""
-3641.12,25.832,20.0002,-1.53643e-07,NaN,-3.84108e-08,NaN,""
-3619.15,25.8153,20.0003,1.24233e-08,NaN,3.10583e-09,NaN,""
-3603.4,25.8034,20.0002,5.27284e-08,NaN,1.31821e-08,NaN,""
-3559.68,25.7702,20,-1.68208e-07,NaN,-4.2052e-08,NaN,""
-3539.52,25.7549,19.9999,4.7817e-07,NaN,1.19542e-07,NaN,""
-3527.57,25.7462,19.9999,2.85853e-07,NaN,7.14632e-08,NaN,""
-3515.62,25.7428,19.9998,9.35359e-08,NaN,2.3384e-08,NaN,""
-3485.99,25.7344,19.9997,1.85187e-07,NaN,4.62967e-08,NaN,""
-3456.35,25.726,19.9997,2.76838e-07,NaN,6.92095e-08,NaN,""
-3430.78,25.7188,19.9997,-3.04549e-07,NaN,-7.61372e-08,NaN,""
-3404.41,25.7113,19.9998,1.9591e-07,NaN,4.89776e-08,NaN,""
-3352.85,25.6967,19.9998,-2.96213e-07,NaN,-7.40533e-08,NaN,""
-3317.28,25.6866,19.9998,-3.8186e-07,NaN,-9.54651e-08,NaN,""
-3281.34,25.6764,19.9997,-1.53613e-07,NaN,-3.84032e-08,NaN,""
-3268.28,25.8449,19.9997,-7.06966e-08,NaN,-1.76742e-08,NaN,""
-3222.96,25.827,19.9996,2.17165e-07,NaN,5.42912e-08,NaN,""
-3197.88,25.792,19.9999,1.88783e-07,NaN,4.71957e-08,NaN,""
-3183.35,25.7567,20,1.49833e-07,NaN,3.74584e-08,NaN,""
-3158.26,25.7512,20.0001,-1.23886e-08,NaN,-3.09714e-09,NaN,""
-3150.83,25.7496,20.0001,-5.26528e-07,NaN,-1.31632e-07,NaN,""
-3141.03,25.7474,20.0001,-1.04087e-08,NaN,-2.60218e-09,NaN,""
-3130.72,25.7452,20.0001,-3.94674e-07,NaN,-9.86686e-08,NaN,""
-3113.09,25.7413,20.0001,4.16888e-07,NaN,1.04222e-07,NaN,""
-3100.28,25.7385,20.0001,-6.16178e-08,NaN,-1.54045e-08,NaN,""
-3095.35,25.7374,20.0001,4.26885e-07,NaN,1.06721e-07,NaN,""
-3086.78,25.7355,20.0001,-1.80791e-07,NaN,-4.51977e-08,NaN,""
-3001.19,25.7168,20,-7.43569e-08,NaN,-1.85892e-08,NaN,""
-2941.29,25.7029,19.9999,6.13679e-08,NaN,1.5342e-08,NaN,""
-2881.38,25.6876,19.9997,1.97093e-07,NaN,4.92732e-08,NaN,""
-2867,25.684,19.9996,-2.27005e-07,NaN,-5.67512e-08,NaN,""
-2833.43,25.6754,19.9995,-1.64714e-07,NaN,-4.11784e-08,NaN,""
-2813.23,25.7289,19.9996,-4.25021e-07,NaN,-1.06255e-07,NaN,""
-2791.27,25.7877,19.9996,-8.73069e-07,NaN,-2.18267e-07,NaN,""
-2776.41,25.8275,19.9996,-3.49189e-07,NaN,-8.72973e-08,NaN,""
-2771.19,25.8414,19.9997,-9.39561e-07,NaN,-2.3489e-07,NaN,""
-2763.32,25.8519,19.9997,-7.02244e-07,NaN,-1.75561e-07,NaN,""
-2755.46,25.8123,19.9997,-4.64927e-07,NaN,-1.16232e-07,NaN,""
-2730.93,25.6887,19.9998,-1.05956e-06,NaN,-2.6489e-07,NaN,""
-2712.7,25.6861,19.9998,-7.68798e-07,NaN,-1.922e-07,NaN,""
-2689.34,25.7026,19.9998,-3.96316e-07,NaN,-9.90789e-08,NaN,""
-2665.99,25.7191,19.9996,-4.89997e-07,NaN,-1.22499e-07,NaN,""
-2652.55,25.7285,19.9995,-4.97688e-07,NaN,-1.24422e-07,NaN,""
-2639.77,25.7376,19.9995,-2.96189e-07,NaN,-7.40473e-08,NaN,""
-2626.99,25.7466,19.9995,-3.26969e-07,NaN,-8.17422e-08,NaN,""
-2622.28,25.7499,19.9996,-4.76491e-07,NaN,-1.19123e-07,NaN,""
-2608.3,25.7598,19.9997,-1.17085e-07,NaN,-2.92714e-08,NaN,""
-2599.28,25.7662,19.9997,-7.67502e-07,NaN,-1.91875e-07,NaN,""
-2586.38,25.7753,19.9998,-3.64304e-07,NaN,-9.10761e-08,NaN,""
-2574.18,25.7585,19.9999,-2.2188e-08,NaN,-5.547e-09,NaN,""
-2556.47,25.7341,20,-4.64092e-07,NaN,-1.16023e-07,NaN,""
-2541.46,25.7135,20.0001,-1.16186e-07,NaN,-2.90466e-08,NaN,""
-2526.44,25.6928,20,2.31719e-07,NaN,5.79297e-08,NaN,""
-2515.15,25.6772,20,-2.94655e-08,NaN,-7.36637e-09,NaN,""
-2505.32,25.6996,19.9999,-1.31447e-07,NaN,-3.28619e-08,NaN,""
-2500.6,25.7104,19.9999,1.62859e-07,NaN,4.07149e-08,NaN,""
-2484.96,25.746,19.9998,-1.24838e-07,NaN,-3.12095e-08,NaN,""
-2470.18,25.7796,19.9998,2.59277e-07,NaN,6.48192e-08,NaN,""
-2462.27,25.7976,19.9998,2.05385e-07,NaN,5.13464e-08,NaN,""
-2445.71,25.7721,19.9999,1.17268e-08,NaN,2.93171e-09,NaN,""
-2432.46,25.7059,19.9999,-1.94766e-07,NaN,-4.86916e-08,NaN,""
-2424.21,25.6842,19.9999,-4.10477e-07,NaN,-1.02619e-07,NaN,""
-2415.97,25.6864,20,-3.23751e-07,NaN,-8.09377e-08,NaN,""
-2406.6,25.689,20,2.25735e-07,NaN,5.64337e-08,NaN,""
-2391.19,25.6933,20.0001,4.30361e-08,NaN,1.0759e-08,NaN,""
-2381.28,25.696,20.0001,2.62261e-07,NaN,6.55653e-08,NaN,""
-2290.92,25.721,19.9998,NaN,NaN,NaN,NaN,""
-2220.8,25.7403,20,NaN,NaN,NaN,NaN,""
-2178.82,25.7519,19.9997,NaN,NaN,NaN,NaN,""
-2176.48,25.7526,19.9997,NaN,NaN,NaN,NaN,""
-2120.93,25.723,20,NaN,NaN,NaN,NaN,""
-2059.74,25.6905,19.9995,NaN,NaN,NaN,NaN,""
-2028.64,25.694,19.9997,NaN,NaN,NaN,NaN,""
-2004.06,25.6967,19.9998,NaN,NaN,NaN,NaN,""
-1830.99,25.716,19.9999,NaN,NaN,NaN,NaN,""
-1829.08,25.7162,19.9999,NaN,NaN,NaN,NaN,""
-1739.64,25.7759,19.9999,NaN,NaN,NaN,NaN,""
-1707.66,25.6803,19.9999,NaN,NaN,NaN,NaN,""
-1668.61,25.7338,19.9998,NaN,NaN,NaN,NaN,""
-1615.68,25.6783,19.9998,NaN,NaN,NaN,NaN,""
-1587.43,25.6487,20.0001,NaN,NaN,NaN,NaN,""
-1569.28,25.7165,20.0003,NaN,NaN,NaN,NaN,""
-1556.32,25.738,20.0001,NaN,NaN,NaN,NaN,""
-1536.79,25.7094,19.9998,NaN,NaN,NaN,NaN,""
-1507.86,25.667,19.9998,NaN,NaN,NaN,NaN,""
-1432.56,25.7584,19.9998,NaN,NaN,NaN,NaN,""
-1364.24,25.7433,19.9998,NaN,NaN,NaN,NaN,""
-1237.15,25.7153,20,NaN,NaN,NaN,NaN,""
-1231.75,25.7153,20,NaN,NaN,NaN,NaN,""
-1156.33,25.7147,19.9995,NaN,NaN,NaN,NaN,""
-1116.21,25.7144,20.0002,NaN,NaN,NaN,NaN,""
-1063.77,25.714,19.9994,NaN,NaN,NaN,NaN,""
-1034.26,25.7339,19.9997,NaN,NaN,NaN,NaN,""
-1004.76,25.7587,19.9999,NaN,NaN,NaN,NaN,""
-947.215,25.8071,19.9999,NaN,NaN,NaN,NaN,""
-906.84,25.7854,19.9999,NaN,NaN,NaN,NaN,""
-866.466,25.7636,20.0003,NaN,NaN,NaN,NaN,""
-839.977,25.7993,20.0003,NaN,NaN,NaN,NaN,""
-805.666,25.8455,19.9999,NaN,NaN,NaN,NaN,""
-775.239,25.6757,19.9999,NaN,NaN,NaN,NaN,""
-758.966,25.7225,19.9998,NaN,NaN,NaN,NaN,""
-740.714,25.7988,19.9998,NaN,NaN,NaN,NaN,""
-679.511,25.7887,19.9997,NaN,NaN,NaN,NaN,""
-620.076,25.7789,20,NaN,NaN,NaN,NaN,""
-535.265,25.7649,19.9999,NaN,NaN,NaN,NaN,""
-494.966,25.7583,20.0007,NaN,NaN,NaN,NaN,""
-451.991,25.7512,20.0011,NaN,NaN,NaN,NaN,""
-417.972,25.7456,20.0004,NaN,NaN,NaN,NaN,""
-326.221,25.7304,20.0007,NaN,NaN,NaN,NaN,""
-213.738,25.7218,20.0003,NaN,NaN,NaN,NaN,""
-101.255,25.7149,19.9999,NaN,NaN,NaN,NaN,""
-41.7255,25.7113,19.9999,NaN,NaN,NaN,NaN,""
-22.534,25.8211,19.9999,NaN,NaN,NaN,NaN,""
-8.93249,25.5474,19.9999,NaN,NaN,NaN,NaN,""
14.6525,25.6411,19.9999,NaN,NaN,NaN,NaN,""
51.6846,25.9584,19.9999,NaN,NaN,NaN,NaN,""
74.9351,25.9643,20,NaN,NaN,NaN,NaN,""
103.014,25.8112,20.0002,NaN,NaN,NaN,NaN,""
141.53,25.8492,20.0004,NaN,NaN,NaN,NaN,""
153.943,25.8614,20,NaN,NaN,NaN,NaN,""
163.068,25.8466,19.9999,NaN,NaN,NaN,NaN,""
217.056,25.7594,19.9999,NaN,NaN,NaN,NaN,""
239.708,25.5712,20,NaN,NaN,NaN,NaN,""
275.314,25.8729,20,NaN,NaN,NaN,NaN,""
299.463,26.0431,20,NaN,NaN,NaN,NaN,""
318.089,25.8792,20,NaN,NaN,NaN,NaN,""
336.716,25.7154,20.0001,NaN,NaN,NaN,NaN,""
361.15,25.7983,20.0001,NaN,NaN,NaN,NaN,""
411.747,25.8358,20.0002,NaN,NaN,NaN,NaN,""
413.83,25.8339,20.0002,NaN,NaN,NaN,NaN,""
454.591,25.798,19.9996,NaN,NaN,NaN,NaN,""
484.15,25.7719,20.0002,NaN,NaN,NaN,NaN,""
528.351,25.7329,20,NaN,NaN,NaN,NaN,""
572.11,25.7449,19.9997,NaN,NaN,NaN,NaN,""
634.141,25.762,19.9999,NaN,NaN,NaN,NaN,""
648.333,25.768,20,NaN,NaN,NaN,NaN,""
671.802,25.778,19.9996,NaN,NaN,NaN,NaN,""
722.482,25.7995,19.9999,NaN,NaN,NaN,NaN,""
730.685,25.6276,19.9999,NaN,NaN,NaN,NaN,""
759.096,25.7251,20,NaN,NaN,NaN,NaN,""
787.507,25.8227,19.9998,NaN,NaN,NaN,NaN,""
837.791,25.845,19.9996,NaN,NaN,NaN,NaN,""
875.935,25.8434,19.9997,NaN,NaN,NaN,NaN,""
931.256,25.7836,19.9997,NaN,NaN,NaN,NaN,""
959.236,25.7648,20.0001,NaN,NaN,NaN,NaN,""
987.216,25.7654,20.0004,NaN,NaN,NaN,NaN,""
1056.86,25.7671,19.9995,NaN,NaN,NaN,NaN,""
1087.21,25.7757,19.9996,NaN,NaN,NaN,NaN,""
1117.56,25.7844,19.9997,NaN,NaN,NaN,NaN,""
1133.72,25.9719,19.9998,NaN,NaN,NaN,NaN,""
1141.43,25.6849,19.9998,NaN,NaN,NaN,NaN,""
1157.23,25.778,19.9998,NaN,NaN,NaN,NaN,""
1173.02,25.8711,19.9999,NaN,NaN,NaN,NaN,""
1192.93,26.1544,19.9999,NaN,NaN,NaN,NaN,""
1209.87,25.9141,20,NaN,NaN,NaN,NaN,""
1272.22,25.8925,20.0001,NaN,NaN,NaN,NaN,""
1289.28,25.9329,19.9999,NaN,NaN,NaN,NaN,""
1306.35,25.9739,19.9996,NaN,NaN,NaN,NaN,""
1329.5,25.9869,19.9997,NaN,NaN,NaN,NaN,""
1352.65,25.899,19.9997,NaN,NaN,NaN,NaN,""
1384.79,25.777,20.0005,NaN,NaN,NaN,NaN,""
1415.94,25.7683,20.0002,NaN,NaN,NaN,NaN,""
1447.38,25.7601,19.9999,NaN,NaN,NaN,NaN,""
1511.9,25.7432,19.9998,NaN,NaN,NaN,NaN,""
1558.13,25.9099,19.9998,NaN,NaN,NaN,NaN,""
1581.8,25.6671,19.9997,NaN,NaN,NaN,NaN,""
1600.3,25.8567,19.9997,NaN,NaN,NaN,NaN,""
1618.8,26.0464,19.9998,NaN,NaN,NaN,NaN,""
1645.98,25.8844,20,NaN,NaN,NaN,NaN,""
1677.27,25.9919,20.0002,NaN,NaN,NaN,NaN,""
1720.56,25.8479,20.0004,NaN,NaN,NaN,NaN,""
1721.87,25.8468,20.0004,NaN,NaN,NaN,NaN,""
1780.06,25.8004,19.9996,NaN,NaN,NaN,NaN,""
1829.41,25.7739,19.9998,NaN,NaN,NaN,NaN,""
1879.48,25.7975,20,NaN,NaN,NaN,NaN,""
1934.65,25.7744,20,NaN,NaN,NaN,NaN,""
1948.95,25.6413,20,NaN,NaN,NaN,NaN,""
1966.85,25.8866,20,NaN,NaN,NaN,NaN,""
2040.41,25.8105,20,NaN,NaN,NaN,NaN,""
2077.24,25.785,20,NaN,NaN,NaN,NaN,""
2121.56,25.7543,20.0002,NaN,NaN,NaN,NaN,""
2160.33,25.7577,19.9999,NaN,NaN,NaN,NaN,""
2199.09,25.7802,19.9997,NaN,NaN,NaN,NaN,""
2247.65,25.8082,19.9999,NaN,NaN,NaN,NaN,""
2278.01,25.7824,19.9999,NaN,NaN,NaN,NaN,""
2308.36,25.7565,19.9999,NaN,NaN,NaN,NaN,""
2349.5,25.9228,19.9997,NaN,NaN,NaN,NaN,""
2358.79,25.811,19.9997,NaN,NaN,NaN,NaN,""
2367.31,25.7248,19.9997,NaN,NaN,NaN,NaN,""
2381.72,25.8552,19.9998,NaN,NaN,NaN,NaN,""
2441.35,25.8141,20,NaN,NaN,NaN,NaN,""
2472.72,25.8488,20.0002,NaN,NaN,NaN,NaN,""
2486.77,25.8643,20.0001,NaN,NaN,NaN,NaN,"Reaction start. Measuring position. Signal correct"
2487.72,25.8633,20.0001,0.000153736,0.00014595,3.84341e-05,3.64875e-05,""
2782.72,25.6768,20.0002,0.00666819,0.0702828,0.00166705,0.0175707,""
2808.72,25.7838,19.9999,0.115993,1.53465,0.0289983,0.383663,""
2840.22,25.7922,20,0.236908,7.2575,0.0592269,1.81437,""
2870.97,25.7718,20.0001,0.297199,15.5953,0.0742997,3.89883,""
2904.22,25.8726,19.9997,0.31982,25.9429,0.079955,6.48574,""
2965.22,25.7919,20,0.308593,45.3199,0.0771483,11.33,""
3075.25,25.7831,19.9999,0.244953,75.8992,0.0612382,18.9748,""
3156.31,25.8552,19.9995,0.199025,93.8526,0.0497562,23.4631,""
3256.56,25.8293,20.0001,0.152199,111.362,0.0380497,27.8405,""
3364.22,25.7927,19.9996,0.113974,125.587,0.0284934,31.3968,""
3486.94,25.8007,19.9997,0.0824671,137.528,0.0206168,34.3819,""
3618.15,25.6556,19.9999,0.0591173,146.72,0.0147793,36.6801,""
3779.06,25.8245,20,0.0402664,154.6,0.0100666,38.6499,""
3984.78,25.7873,19.9999,0.0258287,161.257,0.00645718,40.3141,""
4221,25.7725,19.9998,0.016708,166.169,0.004177,41.5423,""
4435.05,25.8164,19.9999,0.0120798,169.207,0.00301995,42.3018,""
4710.78,25.8492,19.9999,0.0086981,172.025,0.00217453,43.0062,""
5107.11,25.7739,19.9998,0.00620595,174.919,0.00155149,43.7297,""
5622.03,25.7221,19.9997,0.00463031,177.662,0.00115758,44.4154,""
6291.96,25.7871,20.0001,0.00357785,180.374,0.000894462,45.0936,""
6853.1,26.1436,19.9999,0.00304943,182.224,0.000762358,45.556,""
7599.26,25.7791,19.9999,0.00258526,184.314,0.000646316,46.0785,""
8270.82,25.7869,19.9999,0.00229545,185.948,0.000573863,46.4869,""
8855.94,25.8096,19.9995,0.00210528,187.233,0.00052632,46.8083,""
9415.22,25.8218,19.9999,0.00195896,188.367,0.000489739,47.0918,""
9945.14,25.9017,19.9993,0.00184248,189.374,0.000460621,47.3436,""
10442.7,26.1233,19.9999,0.00175089,190.268,0.000437722,47.567,""
11135.2,25.7829,19.9996,0.0016442,191.442,0.000411049,47.8606,""
11755.6,25.9128,20,0.00156844,192.438,0.000392111,48.1094,""
12213.5,25.9463,20.0003,0.0015425,193.149,0.000385625,48.2872,""
12880.2,25.8783,19.9999,0.00154323,194.176,0.000385807,48.544,""
13336.2,26.0161,19.9996,0.00154397,194.88,0.000385992,48.7201,""
13933.8,25.9929,19.9999,0.00153538,195.801,0.000383845,48.9502,""
14602.3,26.0036,19.9999,0.00151384,196.82,0.000378461,49.2051,""
15138.5,25.9917,20,0.00149156,197.627,0.00037289,49.4066,""
15888.2,26.0042,19.9998,0.00145926,198.733,0.000364815,49.6832,""
16368.9,26.0092,20,0.0014376,199.429,0.0003594,49.8573,""
16853.5,26.1343,20,0.00141623,200.12,0.000354057,50.0301,""
17297.5,25.9761,20,0.00139583,200.744,0.000348957,50.1861,""
17895.5,26.0126,19.9998,0.00137142,201.571,0.000342854,50.3928,""
18353.8,26.0002,19.9992,0.00135222,202.195,0.000338055,50.5488,""
18844.4,26.2153,20,0.00133431,202.854,0.000333578,50.7136,""
19385,26.076,19.9999,0.00131472,203.571,0.000328681,50.8927,""
20141.2,26.0163,19.9996,0.00128958,204.555,0.000322395,51.1389,""
20841.7,26.1997,19.9998,0.00126946,205.452,0.000317366,51.363,""
21291.7,26.0958,19.9996,0.00125731,206.02,0.000314327,51.5051,""
21825,26.0717,19.9998,0.00124312,206.687,0.00031078,51.6718,""
22869.9,25.8268,19.9996,0.0012203,207.974,0.000305076,51.9935,""
23485.1,25.8696,19.9998,0.00120755,208.721,0.000301888,52.1801,""
24310.7,25.7863,19.9997,0.00119253,209.711,0.000298132,52.4278,""
25095.5,25.7626,20,0.00118032,210.642,0.000295079,52.6605,""
26105,25.7623,19.9999,0.00116839,211.828,0.000292098,52.957,""
26636.7,25.6986,19.9999,0.00116232,212.448,0.000290581,53.1119,""
27202.9,25.7014,19.9997,0.00115709,213.104,0.000289273,53.2761,""
28219.1,25.705,19.9996,0.00115067,214.276,0.000287667,53.569,""
28902,25.6966,19.9997,0.00115707,215.063,0.000289267,53.7657,""
29633.9,25.6468,19.9999,0.00114744,215.908,0.000286861,53.977,""
30193.1,25.6518,19.9999,0.00113481,216.546,0.000283702,54.1365,""
30859.1,25.6097,19.9999,0.0011205,217.297,0.000280124,54.3243,""
31636.9,25.7384,19.9999,0.00110486,218.162,0.000276215,54.5405,""
32348.8,25.617,19.9997,0.00109188,218.944,0.000272969,54.7361,""
33329.5,25.6401,19.9999,0.00108133,220.01,0.000270332,55.0025,""
34377.7,25.6231,19.9997,0.00107686,221.141,0.000269215,55.2852,""
35134.3,25.5789,19.9999,0.00107541,221.955,0.000268853,55.4888,""
36197.2,25.6258,19.9996,0.00107473,223.097,0.000268683,55.7743,""
36794.3,25.6312,19.9997,0.00107635,223.739,0.000269086,55.9349,""
37570.6,25.599,19.9999,0.00107892,224.575,0.00026973,56.1439,""
38204.7,25.5571,19.9999,0.00108085,225.26,0.000270213,56.315,""
39273.6,25.6016,20.0001,0.00108739,226.419,0.000271848,56.6047,""
40130.6,25.5915,20,0.00109427,227.354,0.000273567,56.8384,""
40812.7,25.5879,20.0002,0.00110144,228.103,0.00027536,57.0257,""
41505.1,25.6402,20.0003,0.00110976,228.868,0.00027744,57.2171,""
42331.9,25.5854,19.9999,0.00112181,229.791,0.000280452,57.4476,""
42981.7,25.5587,19.9997,0.00113153,230.523,0.000282883,57.6307,""
43931.1,25.5825,20.0001,0.00114949,231.606,0.000287373,57.9014,""
44631.9,25.5962,20.0001,0.00116427,232.416,0.000291068,58.1041,""
45323.2,25.6948,19.9998,0.00118068,233.227,0.000295169,58.3067,""
46080.7,25.5627,19.9998,0.00120021,234.129,0.000300054,58.5322,""
47135.6,25.5232,19.9999,0.00123213,235.411,0.000308033,58.8528,""
47900.9,25.5969,19.9998,0.00125711,236.364,0.000314277,59.0909,""
48561.1,25.6305,20.0002,0.0012811,237.202,0.000320276,59.3004,""
49124.5,25.5508,19.9997,0.00130348,237.93,0.000325871,59.4824,""
49910.2,25.5532,19.9998,0.00133706,238.967,0.000334265,59.7417,""
50666.3,25.5744,19.9999,0.00137151,239.99,0.000342879,59.9976,""
51226.1,25.5167,19.9995,0.00139931,240.766,0.000349827,60.1915,""
51862.2,25.5572,19.9997,0.00143295,241.667,0.000358238,60.4166,""
52950.8,25.4641,19.9998,0.00149408,243.259,0.000373521,60.8148,""
53650.1,25.4846,20,0.00153805,244.32,0.000384514,61.0799,""
54234.3,25.4866,19.9998,0.00157752,245.23,0.00039438,61.3075,""
55173,25.5678,20.0001,0.0016452,246.742,0.0004113,61.6855,""
55848.1,25.5063,19.9998,0.00169872,247.87,0.000424681,61.9676,""
56604.4,25.4931,20.0001,0.0017619,249.179,0.000440475,62.2947,""
57856.4,25.4593,19.9998,0.0018801,251.458,0.000470026,62.8645,""
58630.6,25.5781,20,0.00196208,252.945,0.00049052,63.2362,""
59149.8,25.4836,19.9998,0.00202015,253.978,0.000505038,63.4946,""
59645.1,25.4575,20.0002,0.00207956,254.994,0.000519891,63.7485,""
60328.1,25.5005,19.9997,0.00216629,256.443,0.000541572,64.1107,""
61124.7,25.4842,20,0.00227454,258.211,0.000568635,64.5527,""
61820.8,25.5325,20.0001,0.00237536,259.829,0.00059384,64.9574,""
62437.7,25.4864,19.9998,0.00247024,261.323,0.00061756,65.3308,""
63244.8,25.4914,19.9997,0.00260142,263.37,0.000650356,65.8424,""
64093.9,25.5071,20.0001,0.0027486,265.64,0.000687149,66.4101,""
64902.2,25.5303,19.9998,0.00289861,267.922,0.000724654,66.9805,""
65689.4,25.5674,19.9997,0.00305079,270.263,0.000762696,67.5658,""
66420,25.5176,20.0001,0.00319876,272.546,0.00079969,68.1365,""
67260.4,25.5053,19.9998,0.00337744,275.309,0.000844359,68.8272,""
67872.3,25.5075,19.9998,0.00351209,277.417,0.000878024,69.3541,""
68660,25.5097,20.0005,0.00369165,280.253,0.000922913,70.0632,""
69388.7,25.5642,19.9995,0.00386214,283.007,0.000965534,70.7518,""
70384.2,25.5332,19.9999,0.00410162,286.968,0.0010254,71.742,""
71272.2,25.5197,20,0.00432187,290.708,0.00108047,72.677,""
72017,25.5639,19.9995,0.00451064,294.001,0.00112766,73.5001,""
72806.1,25.5801,19.9997,0.00471351,297.636,0.00117838,74.409,""
73331.3,25.6516,20.0002,0.00485037,300.148,0.00121259,75.0371,""
73889,25.6049,20.0001,0.00499662,302.894,0.00124916,75.7236,""
74784.6,26.467,20.0009,0.00523395,307.475,0.00130849,76.8687,""
75611.8,26.5564,19.9987,0.0054551,311.896,0.00136378,77.9741,""
76249.8,26.5795,19.9999,0.00562591,315.431,0.00140648,78.8578,""
76740.5,26.6361,20.0002,0.00575762,318.224,0.00143941,79.556,""
77242.2,26.5129,20,0.00589181,321.146,0.00147295,80.2866,""
77816.4,26.7182,20.0001,0.00604363,324.573,0.00151091,81.1433,""
78375.5,26.5326,19.9999,0.00618988,327.993,0.00154747,81.9983,""
79354.9,26.662,19.9999,0.00644225,334.18,0.00161056,83.5451,""
80222.4,26.645,19.9998,0.00665856,339.864,0.00166464,84.966,""
80928.1,26.6499,19.9998,0.00682815,344.623,0.00170704,86.1558,""
81900.5,26.6642,20,0.00705006,351.372,0.00176251,87.843,""
82938,26.5276,19.9999,0.00727181,358.803,0.00181795,89.7007,""
83466.3,26.6531,19.9996,0.00737955,362.673,0.00184489,90.6684,""
84172.1,26.6501,19.9998,0.00751628,367.931,0.00187907,91.9826,""
84838.4,26.7218,20,0.00764233,372.982,0.00191058,93.2456,""
85585.4,26.4618,19.9998,0.00777126,378.739,0.00194282,94.6848,""
86162.3,26.672,19.9997,0.00786414,383.249,0.00196604,95.8122,""
86724,26.7299,20,0.00794656,387.69,0.00198664,96.9225,""
87755.8,26.8277,20,0.00807581,395.959,0.00201895,98.9896,""
88603.2,26.782,19.9997,0.00816028,402.839,0.00204007,100.71,""
89494.8,26.7135,19.9999,0.00823411,410.149,0.00205853,102.537,""
90368.5,26.8361,19.9997,0.00828255,417.365,0.00207064,104.341,""
91220.9,26.846,20,0.00831801,424.44,0.0020795,106.11,""
91900.2,26.819,19.9998,0.00833443,430.096,0.00208361,107.524,""
92374.9,26.7205,20,0.00834156,434.055,0.00208539,108.514,""
93432.7,26.8255,20.0002,0.00834386,442.881,0.00208597,110.72,""
94083.5,26.7779,19.9999,0.0083392,448.31,0.0020848,112.078,""
94678.6,26.668,19.9997,0.00832909,453.27,0.00208227,113.317,""
95350.7,26.7508,19.9985,0.00831338,458.863,0.00207835,114.716,""
95944.3,26.7822,20,0.00829503,463.793,0.00207376,115.948,""
96872.2,26.6737,19.9997,0.00826136,471.475,0.00206534,117.869,""
97305.8,26.6817,19.9997,0.00824452,475.053,0.00206113,118.763,""
97900.9,26.5434,20,0.0082178,479.953,0.00205445,119.988,""
98469.7,26.3708,19.9997,0.00818938,484.618,0.00204734,121.155,""
98938.5,26.6099,19.9997,0.00816597,488.453,0.00204149,122.113,""
99680.4,26.528,19.9998,0.00812009,494.494,0.00203002,123.624,""
100540,26.5421,19.9995,0.00806542,501.454,0.00201636,125.364,""
101299,25.7388,19.9995,0.00801381,507.556,0.00200345,126.889,""
101851,25.4441,19.9992,0.00797524,511.964,0.00199381,127.991,""
102418,26.0081,19.9999,0.007938,516.479,0.0019845,129.12,""
102936,25.9786,19.9999,0.00790352,520.58,0.00197588,130.145,""
103392,25.7347,20,0.00786977,524.177,0.00196744,131.044,""
104082,25.7019,19.9996,0.00781035,529.588,0.00195259,132.397,""
104769,25.622,19.9994,0.00775162,534.928,0.00193791,133.732,""
105468,25.4529,19.9998,0.00769325,540.326,0.00192331,135.081,""
106166,25.6073,19.9994,0.00763597,545.681,0.00190899,136.42,""
106793,25.4798,19.9994,0.00758102,550.452,0.00189525,137.613,""
107381,25.6039,20.0001,0.00752921,554.895,0.0018823,138.724,""
107972,25.6597,20.0007,0.00747654,559.323,0.00186914,139.831,""
108722,25.5356,20,0.00741593,564.91,0.00185398,141.228,""
109346,25.3235,20,0.00735607,569.52,0.00183902,142.38,""
110009,25.4214,19.9998,0.00729791,574.376,0.00182448,143.594,""
110678,25.3757,19.9998,0.00723488,579.235,0.00180872,144.809,""
111330,25.3999,19.9996,0.00717642,583.937,0.0017941,145.984,""
111889,25.4397,20.0001,0.00712389,587.931,0.00178097,146.983,""
112630,25.3603,19.9999,0.00705458,593.187,0.00176364,148.297,""
113254,25.6137,20,0.00699678,597.568,0.0017492,149.392,""
113924,25.425,19.9993,0.00693229,602.239,0.00173307,150.56,""
114580,25.5352,20.0002,0.00686954,606.765,0.00171739,151.691,""
115307,25.4632,19.9997,0.0068029,611.736,0.00170073,152.934,""
115835,25.3662,19.9998,0.00675377,615.312,0.00168844,153.828,""
116689,25.5755,20,0.00666679,621.046,0.0016667,155.261,""
117149,25.6388,19.9995,0.00661949,624.1,0.00165487,156.025,""
117735,25.4808,19.9994,0.00656051,627.958,0.00164013,156.99,""
118320,25.5504,19.9999,0.00650157,631.782,0.00162539,157.946,""
119002,25.1949,19.9997,0.00643364,636.19,0.00160841,159.048,""
119819,25.3333,19.9997,0.00635121,641.416,0.0015878,160.354,""
120413,25.584,20,0.0062935,645.169,0.00157338,161.292,""
120819,25.5872,20.0001,0.00625267,647.718,0.00156317,161.93,""
121590,25.3248,19.9995,0.00617694,652.511,0.00154424,163.128,""
122331,25.2647,19.9999,0.00610332,657.057,0.00152583,164.264,""
123518,25.2458,19.9999,0.0059874,664.235,0.00149685,166.059,""
124029,25.2639,19.9998,0.00593867,667.28,0.00148467,166.82,""
124591,25.2543,19.9997,0.00588355,670.606,0.00147089,167.652,""
125260,25.2354,19.9998,0.0058182,674.52,0.00145455,168.63,""
125993,25.2517,19.9999,0.0057477,678.754,0.00143693,169.689,""
126617,25.3896,20.0002,0.00568742,682.326,0.00142186,170.581,""
127259,25.2529,20,0.00562518,685.955,0.00140629,171.489,""
128081,25.2505,20,0.00554811,690.55,0.00138703,172.637,""
128970,25.2327,19.9995,0.00546345,695.441,0.00136586,173.86,""
129768,25.1827,19.9999,0.00538804,699.773,0.00134701,174.943,""
130576,25.2972,20,0.00531176,704.092,0.00132794,176.023,""
131408,25.227,19.9999,0.00523487,708.48,0.00130872,177.12,""
132255,25.1939,19.9991,0.00515499,712.882,0.00128875,178.22,""
133108,25.3708,20.0001,0.00507482,717.247,0.0012687,179.312,""
133882,25.1859,19.9996,0.00500609,721.146,0.00125152,180.286,""
134569,25.0942,19.9996,0.00494356,724.567,0.00123589,181.142,""
135386,25.032,19.9996,0.00487013,728.573,0.00121753,182.143,""
136012,24.992,19.9996,0.00481413,731.604,0.00120353,182.901,""
136733,25.0692,20.0003,0.00474975,735.051,0.00118744,183.763,""
137461,25.057,20.0001,0.00468637,738.488,0.00117159,184.622,""
138259,24.991,20,0.00461882,742.198,0.00115471,185.55,""
138817,25.0778,20.0001,0.00457187,744.763,0.00114297,186.191,""
139398,25.0814,19.9999,0.00452225,747.406,0.00113056,186.852,""
140072,25.0884,19.9998,0.00446629,750.437,0.00111657,187.609,""
140952,25.0596,20,0.00439598,754.332,0.00109899,188.583,""
141806,25.0726,20,0.0043252,758.057,0.0010813,189.514,""
142513,25.051,19.9999,0.00427091,761.098,0.00106773,190.275,""
143151,25.0283,19.9999,0.00422101,763.805,0.00105525,190.951,""
144080,25.1032,20,0.00415041,767.696,0.0010376,191.924,""
144853,25.0413,19.9998,0.00409255,770.88,0.00102314,192.72,""
145760,25.1364,19.9999,0.00402667,774.556,0.00100667,193.639,""
146739,25.1065,19.9999,0.00395714,778.469,0.000989286,194.617,""
147476,25.1405,20.0002,0.00390467,781.367,0.000976167,195.342,""
148544,25.1594,20,0.00383265,785.498,0.000958162,196.374,""
149343,25.0815,19.9997,0.00377995,788.539,0.000944987,197.135,""
150267,25.11,19.9999,0.00372069,792.005,0.000930172,198.001,""
151240,25.1111,20,0.00365859,795.594,0.000914648,198.899,""
152074,25.0398,20.0001,0.00360628,798.623,0.000901571,199.656,""
152716,24.9691,19.9997,0.00356824,800.925,0.000892059,200.231,""
153624,25.0246,19.9994,0.00351502,804.141,0.000878756,201.035,""
154274,25.0064,20.0002,0.00347692,806.416,0.000869231,201.604,""
155254,25.0989,20.0001,0.00342129,809.794,0.000855323,202.448,""
156157,25.0565,19.9998,0.00337217,812.862,0.000843042,203.215,""
156863,25.0698,20.0002,0.0033339,815.224,0.000833474,203.806,""
157923,25.0595,19.9999,0.00327937,818.734,0.000819843,204.683,""
158791,25.1557,19.9995,0.00323537,821.561,0.000808843,205.39,""
159680,25.3121,20.0004,0.00319112,824.417,0.000797781,206.104,""
160466,25.2746,20.0002,0.00315376,826.91,0.00078844,206.727,""
161284,25.3186,19.9999,0.00311507,829.475,0.000778768,207.369,""
162046,25.1363,19.9998,0.00307861,831.834,0.000769652,207.958,""
162739,25.1016,20.0011,0.00304813,833.957,0.000762033,208.489,""
163600,25.1184,19.9998,0.00301028,836.564,0.000752569,209.141,""
164439,25.1672,20.0003,0.0029734,839.077,0.000743351,209.769,""
165044,25.2057,19.9999,0.00294706,840.866,0.000736765,210.216,""
166232,25.2318,19.9997,0.00289831,844.338,0.000724578,211.084,""
167022,25.1732,19.9998,0.00286695,846.614,0.000716738,211.653,""
167705,25.2685,19.9995,0.00284087,848.565,0.000710217,212.141,""
168220,25.2089,19.9996,0.00282087,850.022,0.000705217,212.505,""
168982,25.2866,19.9999,0.00279274,852.16,0.000698186,213.04,""
169728,25.3068,19.9998,0.00276465,854.235,0.000691163,213.559,""
170333,25.284,19.9997,0.00274348,855.9,0.000685871,213.975,""
170833,25.3436,19.9998,0.0027262,857.268,0.000681549,214.317,""
171689,25.2612,19.9998,0.00269725,859.592,0.000674312,214.898,""
172712,25.2987,20.0002,0.00266499,862.333,0.000666248,215.583,""
173571,25.2801,19.9997,0.00263848,864.611,0.00065962,216.153,""
174317,25.3411,19.9989,0.00261615,866.572,0.000654038,216.643,""
175024,25.2362,19.9998,0.00259579,868.414,0.000648947,217.103,""
175840,25.1569,20,0.00257254,870.524,0.000643134,217.631,""
176776,25.4506,19.9999,0.0025474,872.92,0.000636849,218.23,""
177314,25.2583,20,0.00253445,874.286,0.000633613,218.572,""
178199,25.3014,19.9999,0.00251162,876.519,0.000627906,219.13,""
178839,25.2442,19.9999,0.00249466,878.122,0.000623666,219.53,""
179483,25.2421,19.9999,0.00247927,879.723,0.000619818,219.931,""
180150,25.1734,20.0003,0.00246447,881.37,0.000616118,220.343,""
180728,25.2103,19.9996,0.00245106,882.792,0.000612766,220.698,""
181612,25.1879,19.9999,0.00243058,884.95,0.000607645,221.237,""
182380,25.1541,19.9997,0.0024133,886.809,0.000603324,221.702,""
183048,25.2027,19.9999,0.00239892,888.416,0.000599729,222.104,""
184090,25.1623,20.0001,0.00237751,890.905,0.000594378,222.726,""
184789,25.1448,19.9999,0.00236335,892.561,0.000590838,223.14,""
185564,25.1503,20.0001,0.00234818,894.387,0.000587044,223.597,""
186195,25.1838,19.9999,0.00233499,895.863,0.000583746,223.966,""
186891,25.29,20.0001,0.00232195,897.483,0.000580488,224.371,""
187821,25.2295,19.9992,0.00230488,899.636,0.000576219,224.909,""
188492,25.3363,19.9997,0.00229299,901.177,0.000573249,225.294,""
189427,25.2512,19.9997,0.00227593,903.313,0.000568982,225.828,""
189910,25.1841,19.9995,0.00226702,904.411,0.000566754,226.103,""
190865,25.2323,19.9999,0.00225143,906.568,0.000562857,226.642,""
191618,25.2557,20,0.00223884,908.259,0.000559709,227.065,""
192629,25.259,19.9999,0.00222227,910.514,0.000555568,227.628,""
193676,25.2857,19.9999,0.00220546,912.832,0.000551364,228.208,""
194260,25.349,19.9995,0.00219548,914.116,0.000548869,228.529,""
195083,25.3063,20.0003,0.00218342,915.919,0.000545855,228.98,""
195817,25.323,19.9996,0.0021726,917.518,0.00054315,229.379,""
196626,25.3516,19.9998,0.00216061,919.27,0.000540152,229.818,""
197285,25.3167,20.0003,0.00215208,920.691,0.00053802,230.173,""
197887,25.3498,20,0.00214296,921.983,0.000535741,230.496,""
198712,25.4176,19.9997,0.0021322,923.748,0.00053305,230.937,""
199396,25.3131,19.9999,0.00212399,925.203,0.000530996,231.301,""
199880,26.2098,20.0005,0.00211568,926.228,0.000528919,231.557,""
200367,25.8761,20.0002,0.0021093,927.258,0.000527325,231.815,""
200905,25.7102,19.9999,0.00210225,928.39,0.000525563,232.097,""
201590,26.2466,20.0004,0.00209397,929.826,0.000523494,232.457,""
202081,26.3575,19.9999,0.00208744,930.853,0.000521859,232.713,""
202562,25.9008,19.9997,0.00208129,931.856,0.000520323,232.964,""
203331,25.6372,19.9997,0.00207265,933.453,0.000518163,233.363,""
204034,25.7055,19.9998,0.00206204,934.908,0.000515511,233.727,""
204467,25.5452,19.9997,0.00205697,935.798,0.000514242,233.95,""
204971,26.0103,20.0003,0.00205126,936.834,0.000512814,234.208,""
205520,25.5722,19.9999,0.0020442,937.959,0.000511051,234.49,""
206055,25.7433,19.9993,0.00203688,939.05,0.000509219,234.763,""
206587,25.795,20.0002,0.00203166,940.131,0.000507915,235.033,""
206911,26.0568,20,0.00202667,940.789,0.000506666,235.197,""
207293,25.8476,19.9998,0.00202475,941.563,0.000506187,235.391,""
207856,25.7068,19.9999,0.00201598,942.701,0.000503994,235.675,""
208183,25.7543,20,0.00201347,943.36,0.000503366,235.84,""
208867,25.8123,19.9999,0.0020058,944.734,0.00050145,236.184,""
209269,25.7572,19.9995,0.00200053,945.539,0.000500134,236.385,""
209850,25.8208,19.9997,0.00199364,946.699,0.000498411,236.675,""
210414,25.4677,19.9994,0.00198779,947.823,0.000496947,236.956,""
211222,25.4042,19.9996,0.00197871,949.425,0.000494676,237.356,""
211742,25.3615,20,0.00197361,950.453,0.000493402,237.613,""
212597,25.3365,19.9999,0.00196381,952.136,0.000490953,238.034,""
213446,25.2934,19.9999,0.00195537,953.8,0.000488842,238.45,""
214435,25.281,19.9997,0.0019446,955.728,0.000486149,238.932,""
215616,25.3291,19.9996,0.00193347,958.018,0.000483367,239.504,""
216471,25.3093,19.9999,0.00192401,959.667,0.000481002,239.917,""
217241,25.2796,19.9999,0.00191643,961.145,0.000479108,240.286,""
218028,25.3012,19.9996,0.00190912,962.65,0.000477279,240.662,""
219015,25.2577,20,0.00190066,964.53,0.000475166,241.133,""
219843,25.3158,20.0001,0.00189183,966.1,0.000472956,241.525,""
220523,25.2706,19.9998,0.00188572,967.385,0.00047143,241.846,""
221141,25.3196,19.9998,0.00188016,968.548,0.00047004,242.137,""
222101,25.3408,19.9999,0.00187121,970.35,0.000467802,242.587,""
222889,25.3737,20.0001,0.00186439,971.822,0.000466098,242.955,""
223681,25.338,19.9996,0.00185739,973.296,0.000464349,243.324,""
224593,25.3259,19.9999,0.00185044,974.986,0.000462611,243.747,""
225544,25.3183,20,0.00184162,976.74,0.000460404,244.185,""
226486,25.2841,20.0001,0.00183421,978.473,0.000458552,244.618,""
227329,25.3243,19.9997,0.00182702,980.016,0.000456755,245.004,""
228102,25.3323,20.0003,0.00182076,981.426,0.000455191,245.356,""
228757,25.3003,19.9999,0.00181652,982.617,0.000454131,245.654,""
229578,25.2878,19.9998,0.0018097,984.104,0.000452424,246.026,""
230393,25.3158,19.9999,0.00180422,985.577,0.000451054,246.394,""
231474,25.2954,19.9998,0.00179586,987.523,0.000448965,246.881,""
232284,25.2872,19.9998,0.00178961,988.976,0.000447403,247.244,""
232948,25.2587,19.9998,0.00178504,990.161,0.00044626,247.54,""
233760,25.3087,20,0.00177806,991.608,0.000444514,247.902,""
234746,25.3349,19.9998,0.00177068,993.359,0.00044267,248.34,""
235538,25.369,19.9999,0.00176634,994.759,0.000441585,248.69,""
236459,25.3808,19.9997,0.00175971,996.384,0.000439929,249.096,""
237215,25.3862,20.0003,0.00175465,997.712,0.000438662,249.428,""
238029,25.3742,19.9999,0.00174958,999.137,0.000437394,249.784,""
238998,25.3949,19.9999,0.00174184,1000.83,0.00043546,250.207,""
240432,25.4053,19.9997,0.00173221,1003.32,0.000433052,250.83,""
241104,25.4713,19.9999,0.00172794,1004.48,0.000431986,251.121,""
242095,25.4351,19.9999,0.0017213,1006.19,0.000430326,251.548,""
242787,25.468,20,0.00171731,1007.38,0.000429328,251.846,""
243384,26.0781,20.0007,0.00171275,1008.41,0.000428189,252.102,""
243993,26.0997,20,0.00171087,1009.45,0.000427718,252.362,""
244573,26.2512,20.0001,0.00170683,1010.44,0.000426707,252.61,""
245237,26.2446,19.9999,0.00170188,1011.57,0.00042547,252.893,""
246071,26.1699,19.9999,0.00169776,1012.99,0.000424439,253.247,""
246725,26.1626,19.9997,0.00169357,1014.1,0.000423393,253.524,""
247566,26.2327,20.0003,0.0016881,1015.52,0.000422024,253.88,""
248312,26.1946,20.0001,0.00168258,1016.78,0.000420646,254.194,""
248993,26.2127,19.9999,0.00167916,1017.92,0.000419789,254.481,""
249843,26.2243,20.0001,0.00167412,1019.35,0.00041853,254.837,""
250670,26.1891,20.0005,0.00166994,1020.73,0.000417485,255.183,""
251379,26.2336,19.9999,0.00166588,1021.91,0.000416469,255.478,""
251923,26.182,19.9997,0.00166341,1022.82,0.000415852,255.705,""
252524,26.2156,20.0001,0.00165918,1023.82,0.000414796,255.954,""
253305,26.2211,19.9997,0.00165472,1025.11,0.00041368,256.278,""
253930,26.2142,19.9997,0.00165077,1026.14,0.000412692,256.536,""
254680,26.2767,20,0.00164728,1027.38,0.00041182,256.845,""
255448,26.3031,20,0.00164258,1028.64,0.000410646,257.161,""
256119,26.1631,19.9999,0.00163894,1029.74,0.000409736,257.436,""
256759,26.1952,20.0002,0.00163548,1030.79,0.000408869,257.698,""
257643,26.2837,20.0002,0.00163062,1032.24,0.000407656,258.059,""
258395,26.2051,19.9996,0.00162654,1033.46,0.000406634,258.365,""
259003,26.2722,20.0004,0.00162252,1034.45,0.00040563,258.612,""
259773,26.3002,20,0.0016189,1035.7,0.000404724,258.924,""
260447,26.2443,19.9993,0.00161468,1036.79,0.000403669,259.197,""
261251,26.1849,19.9998,0.00161146,1038.08,0.000402866,259.521,""
261954,26.1682,19.999,0.00160814,1039.21,0.000402034,259.804,""
262796,26.1839,19.9999,0.00160331,1040.57,0.000400828,260.142,""
263616,26.2342,20,0.0015996,1041.88,0.0003999,260.47,""
264284,26.2534,19.9999,0.00159564,1042.95,0.000398911,260.737,""
264945,26.297,20.0002,0.00159208,1044,0.000398019,261.001,""
265664,26.2716,20.0001,0.00158978,1045.14,0.000397445,261.286,""
266543,26.2951,20.0002,0.00158501,1046.54,0.000396253,261.635,""
267207,26.3112,20,0.00158163,1047.59,0.000395407,261.898,""
267966,26.2588,19.9998,0.00157839,1048.79,0.000394599,262.198,""
268743,26.3252,20.0005,0.00157387,1050.02,0.000393467,262.504,""
269528,26.3175,19.9999,0.00157076,1051.25,0.000392691,262.812,""
270064,26.4193,20,0.0015682,1052.09,0.000392051,263.023,""
270624,25.7427,19.9991,0.00156615,1052.97,0.000391538,263.242,""
271116,25.7137,19.9997,0.00156345,1053.74,0.000390864,263.435,""
271779,25.6816,19.9998,0.00156142,1054.77,0.000390354,263.694,""
272148,25.5577,20,0.0015586,1055.35,0.000389651,263.838,""
272673,25.3908,19.9999,0.0015561,1056.17,0.000389025,264.042,""
273312,25.5585,19.9998,0.00155244,1057.16,0.00038811,264.29,""
273904,25.4921,19.9996,0.00155017,1058.08,0.000387542,264.52,""
274455,25.3497,20,0.00154699,1058.93,0.000386747,264.733,""
275315,25.4238,19.9995,0.00154347,1060.26,0.000385867,265.065,""
275930,25.3161,19.9996,0.00154066,1061.21,0.000385165,265.303,""
276864,25.3091,19.9999,0.00153754,1062.65,0.000384385,265.662,""
277639,25.3136,19.9998,0.00153388,1063.84,0.000383471,265.959,""
278381,25.3338,19.9997,0.00153086,1064.98,0.000382714,266.244,""
279323,25.4021,19.9997,0.00152586,1066.41,0.000381466,266.604,""
279885,25.3127,20.0006,0.00152474,1067.27,0.000381186,266.818,""
280591,25.3426,19.9999,0.00152116,1068.35,0.000380291,267.087,""
281208,25.3123,19.9999,0.00151872,1069.28,0.00037968,267.321,""
281938,25.3603,19.9998,0.00151634,1070.39,0.000379084,267.598,""
282873,25.3855,20,0.0015122,1071.81,0.000378051,267.952,""
283785,25.3962,19.9998,0.00150883,1073.19,0.000377207,268.296,""
284652,25.404,19.9997,0.0015055,1074.49,0.000376374,268.623,""
285605,25.3731,19.9997,0.00150239,1075.93,0.000375598,268.981,""
286487,25.3953,19.9999,0.00149854,1077.25,0.000374635,269.312,""
288107,25.4137,20,0.0014931,1079.67,0.000373275,269.918,""
288972,25.3411,19.9999,0.0014906,1080.96,0.00037265,270.241,""
289769,25.501,19.9999,0.001488,1082.15,0.000372,270.538,""
290752,25.3463,19.9998,0.00148479,1083.61,0.000371199,270.903,""
291401,25.4018,19.999,0.00148237,1084.57,0.000370592,271.143,""
292234,25.4043,19.9999,0.00147934,1085.81,0.000369836,271.452,""
292760,25.3975,20,0.00147774,1086.59,0.000369435,271.646,""
293564,25.4918,19.9998,0.00147552,1087.77,0.000368881,271.943,""
294485,25.3733,20,0.00147224,1089.13,0.000368059,272.282,""
295332,25.405,19.9999,0.00147002,1090.38,0.000367506,272.594,""
296005,25.4189,20.0001,0.00146703,1091.36,0.000366758,272.841,""
296597,25.4181,20,0.00146541,1092.23,0.000366352,273.058,""
297301,25.3303,19.9998,0.00146374,1093.26,0.000365936,273.316,""
298067,25.4514,19.9998,0.00146084,1094.38,0.00036521,273.595,""
298762,25.4183,20,0.00145757,1095.4,0.000364393,273.849,""
299716,25.4218,20,0.00145425,1096.79,0.000363563,274.197,""
300444,25.4058,19.9999,0.00145247,1097.84,0.000363119,274.461,""
301388,25.3838,19.9997,0.00144942,1099.21,0.000362354,274.804,""
302408,25.392,19.9998,0.00144675,1100.69,0.000361688,275.173,""
303245,25.4257,19.9997,0.00144444,1101.9,0.000361109,275.475,""
304012,25.4118,19.9999,0.00144207,1103.01,0.000360517,275.752,""
305068,25.418,19.9997,0.00143887,1104.53,0.000359716,276.133,""
305825,25.3872,20,0.00143686,1105.62,0.000359216,276.405,""
306509,25.4413,20.0001,0.00143501,1106.6,0.000358752,276.65,""
307449,25.4185,20,0.00143201,1107.95,0.000358002,276.987,""
308174,25.4285,19.9997,0.00142975,1108.99,0.000357438,277.246,""
309143,25.4192,19.9999,0.00142778,1110.37,0.000356945,277.592,""
309842,25.4505,20,0.00142475,1111.37,0.000356189,277.842,""
310577,25.4383,19.9999,0.00142282,1112.41,0.000355704,278.103,""
311603,25.445,20.0002,0.00141952,1113.87,0.000354879,278.468,""
312259,25.4298,19.9998,0.00141799,1114.8,0.000354497,278.7,""
312963,25.4414,19.9997,0.00141658,1115.8,0.000354146,278.95,""
313895,25.4059,19.9996,0.00141408,1117.12,0.00035352,279.279,""
314631,25.4353,19.9999,0.00141217,1118.16,0.000353042,279.539,""
315135,25.4545,19.9998,0.00141016,1118.87,0.00035254,279.717,""
315868,25.362,19.9999,0.0014087,1119.9,0.000352174,279.975,""
316484,25.4629,20.0003,0.00140644,1120.77,0.00035161,280.192,""
317237,25.4451,19.9999,0.00140478,1121.83,0.000351194,280.457,""
317925,25.4543,19.9999,0.00140297,1122.79,0.000350742,280.698,""
318569,25.4369,19.9995,0.00140134,1123.7,0.000350336,280.924,""
319364,25.4467,19.9998,0.00139939,1124.81,0.000349847,281.202,""
320332,25.4103,20,0.00139677,1126.16,0.000349192,281.54,""
321044,25.4079,20,0.00139454,1127.16,0.000348636,281.789,""
322143,25.4929,20,0.00139198,1128.69,0.000347995,282.171,""
[...]
338444,25.5492,19.9999,0.00135149,1151.04,0.000337872,287.759,""
339337,25.4293,19.9998,0.00134922,1152.24,0.000337304,288.061,""
340097,25.5539,19.9995,0.00134676,1153.27,0.000336689,288.317,""
340917,25.5132,20,0.00134574,1154.37,0.000336435,288.593,""
342049,25.5408,19.9997,0.00134235,1155.89,0.000335588,288.973,""
342736,25.735,19.9999,0.00134014,1156.81,0.000335035,289.204,""
343344,25.5677,20.0001,0.00133924,1157.63,0.00033481,289.407,""
343901,25.5604,20,0.00133775,1158.37,0.000334439,289.594,""
344908,25.5919,19.9999,0.00133559,1159.72,0.000333898,289.93,""
345802,25.4785,19.9998,0.00133334,1160.91,0.000333335,290.229,""
346507,25.5926,19.9999,0.00133166,1161.85,0.000332916,290.463,""
347370,25.581,20,0.00132972,1163,0.00033243,290.751,""
348289,25.5681,19.9999,0.00132693,1164.22,0.000331734,291.056,""
349054,25.6295,19.9999,0.00132499,1165.24,0.000331247,291.309,""
349617,25.5452,19.9997,0.00132418,1165.98,0.000331044,291.496,""
350186,25.6759,20.0001,0.00132279,1166.74,0.000330698,291.684,""
350881,25.5589,19.9999,0.00132144,1167.66,0.000330359,291.914,""
351691,25.5943,20,0.00132004,1168.73,0.000330011,292.181,""
352686,25.657,19.9999,0.0013167,1170.04,0.000329175,292.509,""
353732,25.5736,20,0.00131363,1171.41,0.000328407,292.853,""
354578,25.6542,19.9995,0.00131222,1172.52,0.000328054,293.131,""
355296,25.8229,19.9995,0.00131035,1173.47,0.000327588,293.366,""
356158,25.5759,20.0002,0.00130898,1174.59,0.000327244,293.648,""
356831,25.666,19.9998,0.00130675,1175.47,0.000326688,293.869,""
357645,25.739,20.0001,0.00130509,1176.54,0.000326273,294.134,""
358132,25.6096,19.9997,0.00130348,1177.17,0.000325869,294.293,""
359069,25.6079,19.9997,0.00130177,1178.39,0.000325442,294.598,""
359852,25.8523,19.9999,0.00129992,1179.41,0.00032498,294.853,""
360450,25.6484,20.0001,0.00129777,1180.19,0.000324442,295.047,""
361356,25.6013,20,0.00129575,1181.36,0.000323938,295.341,""
362347,25.8274,20,0.00129298,1182.65,0.000323244,295.662,""
363057,25.7615,20.0003,0.0012922,1183.56,0.000323051,295.891,""
363997,25.6197,20,0.00129038,1184.78,0.000322594,296.195,""
364547,25.5489,19.9998,0.00128788,1185.49,0.000321971,296.372,""
365298,25.7156,19.9989,0.00128679,1186.45,0.000321699,296.614,""
366078,25.6936,19.9998,0.00128522,1187.46,0.000321306,296.864,""
366964,25.6425,20.0011,0.00128328,1188.59,0.000320821,297.149,""
367590,25.7677,19.9998,0.00128102,1189.4,0.000320255,297.35,""
369042,25.7249,19.9998,0.00127849,1191.26,0.000319623,297.814,""
369700,25.7714,19.9999,0.00127615,1192.1,0.000319036,298.024,""
370419,25.7279,19.9998,0.0012743,1193.01,0.000318575,298.253,""
371087,25.7213,19.9994,0.00127341,1193.86,0.000318353,298.466,""
371636,25.6698,19.9998,0.00127186,1194.56,0.000317964,298.641,""
372382,25.6121,20,0.00126994,1195.51,0.000317484,298.878,""
373559,25.729,19.9999,0.00126685,1197,0.000316712,299.251,""
374469,25.6772,19.9998,0.00126509,1198.16,0.000316272,299.539,""
375281,25.6986,19.9995,0.0012632,1199.18,0.000315799,299.796,""
376117,25.612,19.9997,0.00126137,1200.24,0.000315343,300.059,""
377039,25.5939,20,0.00125911,1201.4,0.000314778,300.35,""
377833,25.665,19.9998,0.00125642,1202.4,0.000314106,300.599,""
378507,25.6606,19.9995,0.00125449,1203.24,0.000313624,300.811,""
379340,25.5886,20,0.00125367,1204.29,0.000313419,301.072,""
380199,25.6182,19.9999,0.00125056,1205.36,0.00031264,301.341,""
381282,25.673,19.9999,0.00124826,1206.72,0.000312066,301.679,""
381847,25.6305,20.0001,0.0012459,1207.42,0.000311475,301.856,""
382528,25.6281,19.9999,0.00124508,1208.27,0.000311269,302.068,""
383230,25.7568,20.0001,0.00124343,1209.14,0.000310858,302.286,""
384097,25.705,19.9999,0.00124089,1210.22,0.000310222,302.555,""
384879,25.7357,19.9997,0.00123847,1211.19,0.000309617,302.798,""
385372,25.7605,19.9998,0.0012372,1211.8,0.000309299,302.95,""
386543,25.7058,19.9999,0.00123464,1213.25,0.000308659,303.312,""
387481,25.7009,19.9997,0.00123175,1214.4,0.000307936,303.601,""
388223,25.7041,20.0004,0.00122996,1215.32,0.000307489,303.83,""
389162,25.7111,19.9999,0.00122768,1216.47,0.000306919,304.118,""
390118,25.6442,19.9998,0.00122514,1217.64,0.000306285,304.411,""
390994,25.7211,19.9998,0.00122251,1218.72,0.000305627,304.679,""
392038,25.7102,19.9995,0.00121923,1219.99,0.000304808,304.998,""
392852,25.7238,20,0.00121706,1220.98,0.000304264,305.246,""
393693,25.6999,19.9999,0.00121553,1222.01,0.000303883,305.502,""
394843,25.7689,19.9996,0.00121216,1223.4,0.000303041,305.851,""
395656,25.7053,19.9999,0.00120912,1224.39,0.00030228,306.096,""
396565,25.6888,19.9999,0.001207,1225.48,0.000301751,306.371,""
397405,25.7386,20.0002,0.0012049,1226.5,0.000301224,306.625,""
398595,25.8268,20,0.00120082,1227.93,0.000300204,306.983,""
399719,25.78,19.9998,0.00119884,1229.28,0.000299711,307.32,""
400734,25.6613,19.9997,0.00119587,1230.49,0.000298968,307.624,""
401916,25.6083,20,0.00119254,1231.91,0.000298136,307.977,""
403282,25.6476,19.9996,0.00118885,1233.53,0.000297213,308.383,""
403967,25.6532,19.9998,0.00118611,1234.35,0.000296526,308.587,""
404786,25.6725,19.9999,0.00118446,1235.32,0.000296116,308.829,""
405567,25.6401,19.9998,0.00118217,1236.24,0.000295543,309.06,""
406473,25.7585,19.9996,0.0011796,1237.31,0.000294899,309.328,""
407500,25.6016,19.9998,0.00117687,1238.52,0.000294216,309.63,""
408430,25.6858,19.9998,0.00117359,1239.61,0.000293397,309.904,""
409336,25.7296,19.9999,0.00117069,1240.68,0.000292671,310.169,""
410342,25.609,19.9997,0.00116782,1241.85,0.000291956,310.463,""
410923,25.6722,19.9997,0.00116625,1242.53,0.000291562,310.633,""
411655,25.7078,19.9996,0.00116448,1243.38,0.00029112,310.846,""
412550,25.6918,19.9996,0.00116252,1244.42,0.000290629,311.106,""
413442,25.7164,19.9997,0.00115955,1245.46,0.000289887,311.365,""
414502,25.7161,19.9999,0.00115616,1246.69,0.00028904,311.672,""
415300,25.6557,19.9999,0.00115418,1247.61,0.000288544,311.902,""
416267,25.5706,19.9999,0.00115066,1248.72,0.000287666,312.181,""
416767,25.6371,20,0.00114943,1249.3,0.000287357,312.325,""
417171,25.6498,19.9997,0.0011486,1249.76,0.000287151,312.441,""
417829,25.5565,20.0002,0.00114641,1250.52,0.000286601,312.63,""
418464,25.6496,19.9996,0.00114411,1251.25,0.000286027,312.811,""
419555,25.4772,20.0001,0.00114056,1252.49,0.00028514,313.123,""
420376,25.6041,19.9999,0.00113859,1253.43,0.000284646,313.357,""
421214,25.7501,19.9998,0.00113574,1254.38,0.000283935,313.595,""
422626,25.5803,20.0001,0.00113235,1255.98,0.000283088,313.995,""
423357,25.6658,19.9997,0.00113047,1256.81,0.000282617,314.202,""
424064,25.5848,19.9997,0.00112721,1257.61,0.000281803,314.401,""
424586,25.4909,20.0003,0.00112586,1258.19,0.000281466,314.548,""
425217,25.6291,20.0003,0.00112386,1258.9,0.000280966,314.726,""
425941,25.5251,19.9998,0.00112134,1259.72,0.000280336,314.929,""
426774,25.5519,20,0.00111908,1260.65,0.00027977,315.163,""
427537,25.5382,19.9999,0.00111685,1261.5,0.000279211,315.376,""
428410,25.6194,19.9999,0.00111359,1262.48,0.000278398,315.619,""
429021,25.5295,19.9997,0.00111126,1263.16,0.000277815,315.789,""
429938,25.6951,19.9997,0.00110931,1264.17,0.000277327,316.044,""
430956,25.6154,19.9997,0.00110587,1265.3,0.000276468,316.325,""
431993,25.6748,20,0.00110259,1266.45,0.000275648,316.612,""
432971,25.5344,19.9999,0.0010992,1267.52,0.000274801,316.881,""
433977,25.6815,19.9998,0.00109536,1268.63,0.00027384,317.157,""
434984,25.6407,19.9999,0.001092,1269.73,0.000272999,317.432,""
435778,25.5056,19.9999,0.00108989,1270.6,0.000272472,317.649,""
436370,25.578,19.9997,0.00108803,1271.24,0.000272008,317.81,""
437026,25.6414,20,0.00108583,1271.95,0.000271458,317.988,""
438049,25.5374,20.0002,0.00108335,1273.06,0.000270837,318.266,""
438680,25.6427,19.9998,0.00108084,1273.75,0.000270211,318.436,""
439371,25.6542,19.9999,0.00107792,1274.49,0.000269481,318.623,""
440148,25.5559,19.9996,0.00107556,1275.33,0.00026889,318.832,""
440923,25.6754,20,0.00107398,1276.16,0.000268496,319.04,""
441659,25.6525,19.9996,0.00106985,1276.95,0.000267462,319.238,""
442622,25.6819,20.0003,0.00106768,1277.98,0.000266919,319.495,""
443119,25.582,20.0003,0.001066,1278.51,0.0002665,319.627,""
443760,25.5728,19.9998,0.00106379,1279.19,0.000265948,319.798,""
444436,25.5523,19.9999,0.0010619,1279.91,0.000265474,319.978,""
445153,25.7376,19.9998,0.0010588,1280.67,0.000264701,320.168,""
445940,25.6154,19.9999,0.00105645,1281.5,0.000264114,320.376,""
446974,25.5673,19.9998,0.00105278,1282.59,0.000263194,320.649,""
447842,25.5721,19.9995,0.0010506,1283.51,0.00026265,320.877,""
448826,25.6583,19.9997,0.00104678,1284.54,0.000261696,321.135,""
449696,25.6123,19.9999,0.00104492,1285.45,0.00026123,321.362,""
450332,25.5904,19.9998,0.0010427,1286.11,0.000260674,321.528,""
451077,25.7111,19.9996,0.00104073,1286.89,0.000260182,321.723,""
451820,25.673,19.9999,0.00103915,1287.66,0.000259788,321.916,""
452462,25.7493,19.9994,0.00103607,1288.33,0.000259019,322.082,""
453045,25.6791,19.9997,0.00103409,1288.93,0.000258524,322.233,""
453929,25.6321,19.9997,0.00103207,1289.84,0.000258018,322.461,""
454515,25.545,19.9995,0.00102972,1290.45,0.000257431,322.612,""
455179,25.8169,19.9998,0.00102847,1291.13,0.000257118,322.783,""
456066,25.675,19.9998,0.00102597,1292.04,0.000256492,323.011,""
456878,25.752,19.9997,0.00102262,1292.87,0.000255654,323.219,""
457586,25.7092,20.0003,0.00102021,1293.6,0.000255053,323.399,""
458681,25.6702,20,0.00101675,1294.71,0.000254188,323.678,""
459371,25.7302,19.9998,0.00101537,1295.41,0.000253843,323.853,""
460520,25.7815,19.9999,0.00101103,1296.58,0.000252757,324.144,""
461309,25.7372,19.9996,0.00100879,1297.37,0.000252197,324.343,""
462429,25.6654,19.9998,0.00100583,1298.5,0.000251457,324.625,""
463539,25.5682,19.9994,0.00100237,1299.62,0.000250594,324.904,""
464158,25.6452,20.0002,0.00100087,1300.24,0.000250217,325.059,""
464978,25.6294,19.9999,0.000998201,1301.06,0.00024955,325.264,""
465682,25.5995,19.9996,0.000995774,1301.76,0.000248944,325.439,""
466495,25.5603,19.9997,0.000992454,1302.57,0.000248114,325.641,""
467163,25.6001,20,0.000990388,1303.23,0.000247597,325.807,""
468011,25.5716,19.9994,0.000988135,1304.07,0.000247034,326.017,""
468934,25.4833,19.9999,0.000986254,1304.98,0.000246563,326.244,""
469777,25.5391,20.0001,0.000983536,1305.81,0.000245884,326.452,""
470288,25.5395,19.9997,0.000981767,1306.31,0.000245442,326.577,""
471245,25.6229,19.9999,0.000978714,1307.25,0.000244679,326.812,""
472105,25.6191,19.9999,0.000975706,1308.09,0.000243926,327.022,""
472711,25.6145,19.9998,0.000973921,1308.68,0.00024348,327.17,""
473398,25.5848,19.9998,0.000972682,1309.35,0.00024317,327.337,""
474366,25.586,19.9997,0.000969214,1310.29,0.000242304,327.572,""
475343,25.6713,19.9994,0.000966963,1311.23,0.000241741,327.808,""
476282,25.6552,20,0.000963401,1312.14,0.00024085,328.035,""
477292,25.6603,20.0003,0.000960824,1313.11,0.000240206,328.278,""
478191,25.6917,19.9999,0.000957723,1313.97,0.000239431,328.494,""
478923,25.6409,19.9998,0.000956253,1314.68,0.000239063,328.669,""
479912,25.7362,19.9999,0.000953332,1315.62,0.000238333,328.905,""
481075,25.6875,19.9995,0.00094945,1316.73,0.000237362,329.181,""
482285,25.712,19.9995,0.000946142,1317.87,0.000236535,329.468,""
483344,25.6273,19.9998,0.000943007,1318.87,0.000235752,329.718,""
484323,25.6726,20,0.000940591,1319.8,0.000235148,329.949,""
485549,25.6469,19.9998,0.000936633,1320.94,0.000234158,330.236,""
486371,25.6897,20.0001,0.000934239,1321.71,0.00023356,330.428,""
487705,25.6533,19.9998,0.000930517,1322.96,0.000232629,330.739,""
488480,25.6845,19.9992,0.000928013,1323.68,0.000232003,330.919,""
489414,25.6058,19.9999,0.000924492,1324.54,0.000231123,331.136,""
489959,25.7275,20.0003,0.000923703,1325.05,0.000230926,331.262,""
490638,25.7372,19.9996,0.000921214,1325.67,0.000230303,331.418,""
491422,25.6801,19.9997,0.000919383,1326.39,0.000229846,331.599,""
492326,25.4946,20.0002,0.000916247,1327.22,0.000229062,331.806,""
493053,25.6332,19.9998,0.000913949,1327.89,0.000228487,331.972,""
493882,25.4937,20.0004,0.000911664,1328.65,0.000227916,332.161,""
495155,25.5547,19.9999,0.000907398,1329.8,0.000226849,332.451,""
496281,25.5076,20.0002,0.00090486,1330.82,0.000226215,332.706,""
497216,25.5673,19.9998,0.000902056,1331.67,0.000225514,332.917,""
498340,25.5916,19.9998,0.000898221,1332.68,0.000224555,333.17,""
499437,25.6237,19.9993,0.000895295,1333.66,0.000223824,333.416,""
501034,25.6012,20.0004,0.000890688,1335.09,0.000222672,333.773,""
501938,25.6231,20,0.000887853,1335.89,0.000221963,333.974,""
502475,26.4109,20.0004,0.000886913,1336.37,0.000221728,334.093,""
502975,26.4445,20.0005,0.000885411,1336.81,0.000221353,334.204,""
503597,26.4841,20.0003,0.000883267,1337.36,0.000220817,334.341,""
504565,26.328,19.9998,0.000880653,1338.22,0.000220163,334.555,""
505207,26.4671,19.9996,0.000879581,1338.78,0.000219895,334.696,""
506047,26.4267,19.9998,0.000877318,1339.52,0.00021933,334.88,""
506883,26.2828,19.9996,0.00087405,1340.25,0.000218513,335.063,""
507500,26.3511,19.9996,0.000871971,1340.79,0.000217993,335.198,""
508380,26.4373,19.9997,0.000869873,1341.56,0.000217468,335.389,""
508961,26.407,19.9996,0.000868116,1342.06,0.000217029,335.516,""
509627,26.3672,20.0005,0.000866407,1342.64,0.000216602,335.66,""
510232,26.3957,19.9996,0.000864799,1343.16,0.0002162,335.791,""
511553,26.3618,20.0001,0.0008606,1344.3,0.00021515,336.076,""
512379,26.4207,19.9997,0.00085744,1345.01,0.00021436,336.253,""
513362,26.4464,19.9998,0.000854414,1345.85,0.000213604,336.464,""
514159,26.4555,19.9996,0.000851885,1346.53,0.000212971,336.634,""
514968,26.4786,19.9998,0.000849444,1347.22,0.000212361,336.806,""
515800,26.4468,19.9998,0.000846774,1347.93,0.000211694,336.982,""
516692,26.4245,19.9998,0.000844704,1348.68,0.000211176,337.171,""
517572,26.4445,20,0.000842364,1349.42,0.000210591,337.356,""
518138,26.4672,19.9997,0.000839829,1349.9,0.000209957,337.475,""
518902,26.458,19.9999,0.000837484,1350.54,0.000209371,337.635,""
519908,26.2445,20.0001,0.000834999,1351.38,0.00020875,337.846,""
520768,26.4126,19.9998,0.000832571,1352.1,0.000208143,338.025,""
521310,26.4457,19.9999,0.000830639,1352.55,0.00020766,338.138,""
521914,26.3676,20.0006,0.000828977,1353.05,0.000207244,338.263,""
522427,26.4916,20.0002,0.000827665,1353.48,0.000206916,338.37,""
523435,26.4379,19.9997,0.000824583,1354.31,0.000206146,338.578,""
524505,26.4918,19.9999,0.000822152,1355.19,0.000205538,338.798,""
525659,26.4329,19.9999,0.00081778,1356.14,0.000204445,339.034,""
526061,26.4275,19.9997,0.000817454,1356.47,0.000204363,339.117,""
526675,26.4871,20.0001,0.000814647,1356.97,0.000203662,339.242,""
527397,26.5143,19.9999,0.000813084,1357.56,0.000203271,339.389,""
527924,26.4596,19.9995,0.000811494,1357.98,0.000202873,339.496,""
528680,26.6114,19.9998,0.000809733,1358.6,0.000202433,339.649,""
529320,26.5534,19.9994,0.000807789,1359.11,0.000201947,339.779,""
529850,26.4867,19.9997,0.000806815,1359.54,0.000201704,339.886,""
530699,26.51,19.9999,0.000804088,1360.23,0.000201022,340.057,""
531389,26.6113,19.9998,0.000802463,1360.78,0.000200616,340.195,""
532300,26.5289,19.9996,0.000800268,1361.51,0.000200067,340.377,""
532959,26.677,20.0002,0.000798903,1362.04,0.000199726,340.509,""
533695,26.5932,19.9997,0.000796081,1362.62,0.00019902,340.656,""
534448,26.5534,19.9998,0.000794043,1363.22,0.000198511,340.805,""
535472,26.5749,19.9997,0.000791404,1364.03,0.000197851,341.008,""
536349,25.9265,19.9993,0.000788591,1364.72,0.000197148,341.181,""
537377,25.5761,19.9991,0.000785883,1365.53,0.000196471,341.384,""
538150,25.515,19.9997,0.000783316,1366.14,0.000195829,341.535,""
538933,25.5995,19.9993,0.000781173,1366.75,0.000195293,341.688,""
539653,25.3514,19.9997,0.00077989,1367.32,0.000194972,341.829,""
540213,25.2733,19.9998,0.000777577,1367.75,0.000194394,341.938,""
541053,25.4545,20,0.000775599,1368.4,0.0001939,342.101,""
541867,25.3433,19.9996,0.000773421,1369.03,0.000193355,342.259,""
542618,25.3265,20,0.000771526,1369.61,0.000192882,342.403,""
543361,25.3966,19.9998,0.000769008,1370.19,0.000192252,342.547,""
544159,25.2199,19.9997,0.000767718,1370.8,0.000191929,342.7,""
545069,25.2391,20,0.000765086,1371.5,0.000191272,342.874,""
546087,25.2222,19.9999,0.000762729,1372.28,0.000190682,343.069,""
547077,25.3986,19.9998,0.000760131,1373.03,0.000190033,343.257,""
547954,25.2297,19.9998,0.00075848,1373.7,0.00018962,343.424,""
548597,25.2753,20,0.000756197,1374.18,0.000189049,343.545,""
549384,25.4288,20.0001,0.000754519,1374.78,0.00018863,343.694,""
550129,25.3083,19.9999,0.000752962,1375.34,0.00018824,343.835,""
551246,25.3689,20,0.000750068,1376.18,0.000187517,344.044,""
551850,25.3096,20,0.000749092,1376.63,0.000187273,344.158,""
552794,25.2665,19.9995,0.000746126,1377.34,0.000186531,344.334,""
553990,25.0683,19.9998,0.000743362,1378.23,0.00018584,344.557,""
554976,25.0177,19.9997,0.000740592,1378.96,0.000185148,344.74,""
555857,25.0296,20.0003,0.000738843,1379.61,0.000184711,344.902,""
556631,25.0229,19.9996,0.000736899,1380.18,0.000184225,345.045,""
557876,25.0391,20,0.000734206,1381.1,0.000183551,345.274,""
558768,25.0481,19.9992,0.00073224,1381.75,0.00018306,345.438,""
559415,25.0321,19.9999,0.000730546,1382.22,0.000182636,345.556,""
560624,25.0449,20.0001,0.000727466,1383.11,0.000181867,345.777,""
561300,25.0537,19.9998,0.000726532,1383.6,0.000181633,345.899,""
562410,25.0144,19.9998,0.000724258,1384.4,0.000181065,346.101,""
564013,24.9849,19.9998,0.000720198,1385.56,0.000180049,346.39,""
565344,24.9833,19.9999,0.000716673,1386.52,0.000179168,346.629,""
566473,24.9674,19.9998,0.000714141,1387.32,0.000178535,346.831,""
567963,24.9402,19.9997,0.00071106,1388.39,0.000177765,347.097,""
569705,24.9555,19.9997,0.00070765,1389.62,0.000176912,347.405,""
571800,24.9636,19.9997,0.000703173,1391.1,0.000175793,347.775,""
573058,24.9471,20,0.000700364,1391.98,0.000175091,347.996,""
574469,24.9378,20.0001,0.000697571,1392.97,0.000174393,348.242,""
575517,24.9265,19.9999,0.000694114,1393.7,0.000173529,348.424,""
576247,24.9497,19.9998,0.000692639,1394.2,0.00017316,348.551,""
577358,24.9419,20.0003,0.000691248,1394.97,0.000172812,348.743,""
578148,24.9183,19.9998,0.000687853,1395.52,0.000171963,348.879,""
579394,24.9109,20.0002,0.000685541,1396.37,0.000171385,349.094,""
580304,24.9421,19.9997,0.000684949,1397,0.000171237,349.249,""
581162,24.9626,19.9996,0.000682424,1397.58,0.000170606,349.396,""
582117,24.9636,19.9999,0.00068041,1398.23,0.000170102,349.558,""
583183,24.9876,19.9999,0.000677143,1398.96,0.000169286,349.739,""
584072,25.5062,20,0.000676222,1399.56,0.000169055,349.89,""
585695,25.6434,19.9995,0.000672569,1400.65,0.000168142,350.163,""
586907,25.6742,19.9999,0.000670238,1401.47,0.000167559,350.367,""
587741,25.544,19.9996,0.000668759,1402.03,0.00016719,350.507,""
588816,25.6611,20,0.000666785,1402.74,0.000166696,350.686,""
589348,25.6082,20.0008,0.000665418,1403.1,0.000166355,350.775,""
590006,25.7099,19.9999,0.000664374,1403.54,0.000166094,350.884,""
590853,25.5436,19.9998,0.000661773,1404.1,0.000165443,351.025,""
591736,25.9382,20.0004,0.000660521,1404.68,0.00016513,351.17,""
592745,25.8698,19.9998,0.000658199,1405.35,0.00016455,351.337,""
593308,25.9223,20.0002,0.000656963,1405.72,0.000164241,351.429,""
594193,25.862,19.9998,0.000655124,1406.3,0.000163781,351.575,""
594924,25.983,20.0001,0.000653545,1406.78,0.000163386,351.694,""
595854,26.0241,19.9998,0.000651832,1407.38,0.000162958,351.846,""
596484,25.9508,19.9987,0.000650092,1407.79,0.000162523,351.948,""
597207,25.9295,20.0002,0.000648819,1408.26,0.000162205,352.066,""
598102,25.9849,19.9998,0.000646733,1408.84,0.000161683,352.21,""
599074,25.9402,19.9996,0.000644619,1409.47,0.000161155,352.367,""
599780,25.9345,20.0004,0.000643033,1409.92,0.000160758,352.481,""
600618,25.9656,19.9997,0.000641695,1410.46,0.000160424,352.615,""
601351,25.9564,20,0.000639384,1410.93,0.000159846,352.733,""
602196,25.9946,19.9997,0.000637645,1411.47,0.000159411,352.868,""
602918,25.7366,19.9997,0.000635204,1411.93,0.000158801,352.983,""
603094,NaN,NaN,0.000633933,1412.04,0.000158483,353.011,""
603094,NaN,NaN,NaN,NaN,NaN,NaN,"Ampoule removed"