File: data/JAA_CAL345.csv
Summary
Name,"JAA_CAL345.rslt"
Start time,2023 Jun 06 - 12:07
End time,2023 Jun 13 - 12:47
Operator,"JAA"
Results file path,"C:\Users\ge65ley\Desktop\Calorimetry_Results\AXD\Results_files\JAA_CAL345.rslt"
General Experiment Info
Bath temperature,20Â°C
,Sample - 25336:1
Total mass,6g
Name,"JAA_CAL345"
,Component - OPC
Mass,4g
Name,"OPC"
ID,"Karlstadt CEM I 52.5N 12.10.21"

"Time","Temperature [AmbientT(Therm3T)]","Temperature [Temperature]","Heat flow [Signal]","Heat [Signal]","Normalized heat flow [Signal]","Normalized heat [Signal]","Time markers"
-4446.53,25.6773,20.0002,NaN,NaN,NaN,NaN,""
-4445.53,25.6781,20.0002,9.15469e-07,NaN,2.28867e-07,NaN,""
-4437.15,25.6851,20.0001,1.08627e-06,NaN,2.71568e-07,NaN,""
-4403.97,25.7128,19.9997,9.80632e-07,NaN,2.45158e-07,NaN,""
-4386.68,25.7052,19.9998,1.13964e-06,NaN,2.84909e-07,NaN,""
-4372.31,25.6979,19.9998,1.2711e-06,NaN,3.17776e-07,NaN,""
-4320.87,25.6715,20,1.25134e-06,NaN,3.12836e-07,NaN,""
-4259.79,25.6442,19.9998,1.22789e-06,NaN,3.06972e-07,NaN,""
-4251.69,25.6445,19.9998,1.22478e-06,NaN,3.06194e-07,NaN,""
-4205.99,25.6459,19.9997,6.057e-07,NaN,1.51425e-07,NaN,""
-4184.09,25.6466,19.9996,7.83422e-07,NaN,1.95856e-07,NaN,""
-4163.02,25.6473,20,9.54368e-07,NaN,2.38592e-07,NaN,""
-4145.53,25.6478,20.0003,8.9758e-07,NaN,2.24395e-07,NaN,""
-4126.65,25.6484,20.0001,8.36303e-07,NaN,2.09076e-07,NaN,""
-4111.65,25.6489,20,1.01857e-06,NaN,2.54642e-07,NaN,""
-4090.39,25.6495,19.9998,6.4332e-07,NaN,1.6083e-07,NaN,""
-4073.37,25.6501,19.9998,4.09952e-07,NaN,1.02488e-07,NaN,""
-4044.98,25.6509,19.9997,3.60232e-07,NaN,9.00581e-08,NaN,""
-4041.68,25.6957,19.9997,3.5445e-07,NaN,8.86126e-08,NaN,""
-4028.28,25.8777,19.9997,-3.57919e-08,NaN,-8.94797e-09,NaN,""
-4021.92,25.8607,19.9997,5.27758e-08,NaN,1.31939e-08,NaN,""
-4015.56,25.8336,19.9997,1.41343e-07,NaN,3.53359e-08,NaN,""
-3989.16,25.7213,19.9996,-5.44552e-08,NaN,-1.36138e-08,NaN,""
-3972.85,25.7222,19.9997,-7.96285e-08,NaN,-1.99071e-08,NaN,""
-3925.08,25.8143,20.0001,1.91932e-08,NaN,4.7983e-09,NaN,""
-3895.33,25.7982,20.0001,-9.45164e-08,NaN,-2.36291e-08,NaN,""
-3865.59,25.7325,20.0001,-2.08226e-07,NaN,-5.20565e-08,NaN,""
-3857.64,25.7301,20,-4.09802e-08,NaN,-1.0245e-08,NaN,""
-3849.69,25.7331,20,1.26266e-07,NaN,3.15664e-08,NaN,""
-3828.87,25.7412,20,-6.56772e-08,NaN,-1.64193e-08,NaN,""
-3815.8,25.7463,20,1.11558e-07,NaN,2.78896e-08,NaN,""
-3797.78,25.7533,20,-2.09873e-07,NaN,-5.24682e-08,NaN,""
-3784.53,25.7663,20,-3.12817e-07,NaN,-7.82042e-08,NaN,""
-3773.84,25.7953,20,-2.04852e-07,NaN,-5.12131e-08,NaN,""
-3760.25,25.8321,20.0001,-4.6042e-07,NaN,-1.15105e-07,NaN,""
-3743.28,25.878,20.0001,-2.56712e-07,NaN,-6.4178e-08,NaN,""
-3734.15,25.8927,20.0001,-3.90341e-07,NaN,-9.75853e-08,NaN,""
-3725.03,25.8822,20.0002,-5.2397e-07,NaN,-1.30993e-07,NaN,""
-3712.12,25.8673,20.0002,-1.5197e-07,NaN,-3.79926e-08,NaN,""
-3682.7,25.8333,20.0002,-1.86287e-07,NaN,-4.65718e-08,NaN,""
-3653.28,25.7994,20.0001,-2.20604e-07,NaN,-5.5151e-08,NaN,""
-3626.83,25.7689,20.0001,4.33742e-08,NaN,1.08436e-08,NaN,""
-3626.5,25.7687,20.0001,4.67177e-08,NaN,1.16794e-08,NaN,""
-3618.03,25.7661,20,-1.85752e-07,NaN,-4.64381e-08,NaN,""
-3596.58,25.7592,20,2.48593e-08,NaN,6.21483e-09,NaN,""
-3571.24,25.7512,19.9999,-5.079e-07,NaN,-1.26975e-07,NaN,""
-3550.03,25.7444,19.9998,-2.10007e-07,NaN,-5.25017e-08,NaN,""
-3536.92,25.7402,19.9998,-3.5971e-07,NaN,-8.99275e-08,NaN,""
-3522.17,25.7356,19.9997,-1.63894e-07,NaN,-4.09736e-08,NaN,""
-3495.86,25.7272,19.9996,-3.74039e-07,NaN,-9.35098e-08,NaN,""
-3484.68,25.7236,19.9996,-1.44248e-07,NaN,-3.6062e-08,NaN,""
-3469.9,25.7189,19.9996,-3.7464e-07,NaN,-9.366e-08,NaN,""
-3467.29,25.7181,19.9996,-3.71827e-07,NaN,-9.29567e-08,NaN,""
-3438.54,25.7089,19.9999,-3.40811e-07,NaN,-8.52026e-08,NaN,""
-3419.82,25.703,20,-3.16434e-07,NaN,-7.91084e-08,NaN,""
-3401.09,25.697,20,-2.92057e-07,NaN,-7.30142e-08,NaN,""
-3394.71,25.695,19.9999,-5.08311e-07,NaN,-1.27078e-07,NaN,""
-3377.59,25.6896,19.9999,-4.60027e-07,NaN,-1.15007e-07,NaN,""
-3355.78,25.6826,19.9998,-8.87065e-07,NaN,-2.21766e-07,NaN,""
-3341.01,25.6779,19.9998,-8.85252e-07,NaN,-2.21313e-07,NaN,""
-3308.15,25.7201,19.9996,-8.81217e-07,NaN,-2.20304e-07,NaN,""
-3286.2,25.7483,19.9995,-5.22636e-07,NaN,-1.30659e-07,NaN,""
-3260.19,25.7816,19.9995,-2.98696e-07,NaN,-7.46741e-08,NaN,""
-3234.99,25.807,19.9998,-8.17537e-08,NaN,-2.04384e-08,NaN,""
-3234.18,25.8064,19.9998,-7.47565e-08,NaN,-1.86891e-08,NaN,""
-3219.79,25.7958,20,-2.41405e-07,NaN,-6.03512e-08,NaN,""
-3206.47,25.7861,20,-1.82036e-07,NaN,-4.55089e-08,NaN,""
-3193.15,25.7763,20,-1.22667e-07,NaN,-3.06666e-08,NaN,""
-3138.7,25.7363,20,-2.24162e-07,NaN,-5.60404e-08,NaN,""
-3112.32,25.7232,20,-2.67689e-07,NaN,-6.69222e-08,NaN,""
-3085.93,25.7187,20,-3.11216e-07,NaN,-7.78039e-08,NaN,""
-3030.98,25.7094,20,1.49984e-07,NaN,3.7496e-08,NaN,""
-2957.95,25.697,20,-1.59536e-07,NaN,-3.98839e-08,NaN,""
-2926.5,25.6916,20,-2.79069e-07,NaN,-6.97673e-08,NaN,""
-2923.42,25.6911,20,-2.90811e-07,NaN,-7.27028e-08,NaN,""
-2889.26,25.6645,19.9995,-4.2067e-07,NaN,-1.05167e-07,NaN,""
-2877.82,25.6557,19.9994,-1.14046e-07,NaN,-2.85115e-08,NaN,""
-2867.2,25.6474,19.9994,1.41473e-07,NaN,3.53683e-08,NaN,""
-2849.67,25.6605,19.9995,-8.1419e-09,NaN,-2.03547e-09,NaN,""
-2832.14,25.7166,19.9995,-1.62305e-07,NaN,-4.05762e-08,NaN,""
-2799.6,25.8207,19.9997,-6.19963e-07,NaN,-1.54991e-07,NaN,""
-2772.35,25.7242,19.9998,-9.84611e-07,NaN,-2.46153e-07,NaN,""
-2753.35,25.6569,19.9998,-8.69077e-07,NaN,-2.17269e-07,NaN,""
-2735.83,25.6548,19.9998,-8.67723e-07,NaN,-2.16931e-07,NaN,""
-2718.32,25.7059,19.9997,-8.66369e-07,NaN,-2.16592e-07,NaN,""
-2706.4,25.7407,19.9997,-5.21527e-07,NaN,-1.30382e-07,NaN,""
-2688.57,25.7643,19.9996,-5.92498e-07,NaN,-1.48125e-07,NaN,""
-2670.73,25.7711,19.9995,-6.6347e-07,NaN,-1.65867e-07,NaN,""
-2646.53,25.7804,19.9995,-3.74291e-07,NaN,-9.35727e-08,NaN,""
-2581.06,25.8055,19.9999,NaN,NaN,NaN,NaN,""
-2557.43,25.7404,20,NaN,NaN,NaN,NaN,""
-2533.8,25.6752,19.9999,NaN,NaN,NaN,NaN,""
-2485.81,25.786,19.9996,NaN,NaN,NaN,NaN,""
-2454.17,25.7445,19.9998,NaN,NaN,NaN,NaN,""
-2440.59,25.694,19.9999,NaN,NaN,NaN,NaN,""
-2403.07,25.6965,20,NaN,NaN,NaN,NaN,""
-2358.23,25.6995,19.9999,NaN,NaN,NaN,NaN,""
-2307.46,25.7671,19.9998,NaN,NaN,NaN,NaN,""
-2279.64,25.75,19.9998,NaN,NaN,NaN,NaN,""
-2251.4,25.721,19.9998,NaN,NaN,NaN,NaN,""
-2233.53,25.8816,19.9998,NaN,NaN,NaN,NaN,""
-2208.14,25.7313,19.9998,NaN,NaN,NaN,NaN,""
-2181.98,25.7345,19.9998,NaN,NaN,NaN,NaN,""
-2162.53,25.7369,20.0002,NaN,NaN,NaN,NaN,""
-2116.23,25.7426,19.9999,NaN,NaN,NaN,NaN,""
-2080.77,25.7337,19.9997,NaN,NaN,NaN,NaN,""
-1963.93,25.7044,19.9999,NaN,NaN,NaN,NaN,""
-1906.66,25.705,19.9999,NaN,NaN,NaN,NaN,""
-1849.38,25.718,19.9999,NaN,NaN,NaN,NaN,""
-1783.26,25.733,20.0002,NaN,NaN,NaN,NaN,""
-1749.44,25.7406,19.9996,NaN,NaN,NaN,NaN,""
-1714.55,25.741,19.9998,NaN,NaN,NaN,NaN,""
-1679.66,25.7289,20,NaN,NaN,NaN,NaN,""
-1634.33,25.7132,19.9998,NaN,NaN,NaN,NaN,""
-1586.53,25.6967,20.0003,NaN,NaN,NaN,NaN,""
-1561.91,25.7013,20,NaN,NaN,NaN,NaN,""
-1537.29,25.7151,19.9998,NaN,NaN,NaN,NaN,""
-1451.52,25.7635,19.9998,NaN,NaN,NaN,NaN,""
-1401.37,25.7367,19.9998,NaN,NaN,NaN,NaN,""
-1351.23,25.7098,19.9998,NaN,NaN,NaN,NaN,""
-1302.7,25.7547,19.9997,NaN,NaN,NaN,NaN,""
-1278.46,25.7493,19.9999,NaN,NaN,NaN,NaN,""
-1254.21,25.6446,20.0001,NaN,NaN,NaN,NaN,""
-1238.05,25.6639,20,NaN,NaN,NaN,NaN,""
-1218.68,25.709,19.9999,NaN,NaN,NaN,NaN,""
-1179.28,25.691,19.9997,NaN,NaN,NaN,NaN,""
-1144.73,25.6751,19.9998,NaN,NaN,NaN,NaN,""
-1114.26,25.6942,19.9999,NaN,NaN,NaN,NaN,""
-1062.53,25.7265,19.9994,NaN,NaN,NaN,NaN,""
-1043.29,25.7385,20,NaN,NaN,NaN,NaN,""
-960.418,25.7902,19.9999,NaN,NaN,NaN,NaN,""
-958.302,25.7916,19.9999,NaN,NaN,NaN,NaN,""
-905.707,25.7381,20,NaN,NaN,NaN,NaN,""
-855.138,25.8058,20.0001,NaN,NaN,NaN,NaN,""
-820.193,25.7758,20,NaN,NaN,NaN,NaN,""
-789.708,25.6666,19.9999,NaN,NaN,NaN,NaN,""
-756.045,25.7893,19.9998,NaN,NaN,NaN,NaN,""
-678.988,25.777,19.9998,NaN,NaN,NaN,NaN,""
-638.353,25.7706,20.0001,NaN,NaN,NaN,NaN,""
-558.025,25.7578,19.9998,NaN,NaN,NaN,NaN,""
-513.602,25.7508,20.0006,NaN,NaN,NaN,NaN,""
-468.146,25.7436,20.0011,NaN,NaN,NaN,NaN,""
-435.4,25.7384,20.0004,NaN,NaN,NaN,NaN,""
-392.26,25.7315,20.0008,NaN,NaN,NaN,NaN,""
-349.363,25.7247,20.0007,NaN,NaN,NaN,NaN,""
-309.263,25.7253,20.0006,NaN,NaN,NaN,NaN,""
-216.256,25.7267,20.0001,NaN,NaN,NaN,NaN,""
-188.857,25.7271,20.0006,NaN,NaN,NaN,NaN,""
-154.804,25.7276,19.9998,NaN,NaN,NaN,NaN,""
-109.806,25.7282,20.0002,NaN,NaN,NaN,NaN,""
-68.8532,25.7288,19.9998,NaN,NaN,NaN,NaN,""
-54.1637,25.7291,19.9999,NaN,NaN,NaN,NaN,""
-40.4938,25.8521,19.9999,NaN,NaN,NaN,NaN,""
-27.5875,25.5846,19.9999,NaN,NaN,NaN,NaN,""
-1.19105,25.644,20,NaN,NaN,NaN,NaN,""
21.4374,25.8172,20,NaN,NaN,NaN,NaN,""
44.0658,25.9904,19.9999,NaN,NaN,NaN,NaN,""
68.3959,25.8456,19.9998,NaN,NaN,NaN,NaN,""
88.6854,25.767,20,NaN,NaN,NaN,NaN,""
118.994,25.9029,20.0003,NaN,NaN,NaN,NaN,""
145.097,25.8538,20.0002,NaN,NaN,NaN,NaN,""
178.51,25.7909,20,NaN,NaN,NaN,NaN,""
214.434,25.6626,20.0001,NaN,NaN,NaN,NaN,""
232.711,25.6251,20.0001,NaN,NaN,NaN,NaN,""
258.225,25.7222,20.0002,NaN,NaN,NaN,NaN,""
273.712,26.033,20.0003,NaN,NaN,NaN,NaN,""
286.584,25.9456,20.0003,NaN,NaN,NaN,NaN,""
304.377,25.8248,19.9998,NaN,NaN,NaN,NaN,""
327.134,25.7446,19.9999,NaN,NaN,NaN,NaN,""
355.666,25.8192,20.0001,NaN,NaN,NaN,NaN,""
386.698,25.8059,20.0001,NaN,NaN,NaN,NaN,""
429.519,25.7876,20.0001,NaN,NaN,NaN,NaN,"Reaction start. Measuring position. Signal correct"
430.475,25.7872,20.0001,-3.43014e-07,-3.20479e-07,-8.57536e-08,-8.01199e-08,""
730.475,25.687,20.0001,0.0132156,0.0464413,0.0033039,0.0116103,""
755.225,25.7698,20,0.0974515,1.35558,0.0243629,0.338895,""
778.475,25.8436,19.9998,0.17244,4.5385,0.04311,1.13462,""
799.054,25.837,19.9996,0.217222,8.58339,0.0543054,2.14585,""
822.975,25.8293,19.9996,0.246524,14.1716,0.061631,3.54291,""
855.975,25.8187,19.9996,0.260127,22.5963,0.0650318,5.64908,""
897.225,25.8054,19.9997,0.254011,33.2575,0.0635028,8.31438,""
956.287,25.7895,20,0.2286,47.5591,0.05715,11.8898,""
1024.22,25.7818,19.9997,0.194441,61.928,0.0486102,15.482,""
1089.72,25.7744,19.9997,0.163586,73.6334,0.0408966,18.4084,""
1149.97,25.8149,19.9999,0.138634,82.7207,0.0346584,20.6802,""
1219.97,25.9059,20.0001,0.113998,91.5372,0.0284995,22.8843,""
1297.47,26.0476,19.9997,0.0916843,99.4763,0.0229211,24.8691,""
1389.94,25.8051,20.0004,0.0708098,106.945,0.0177024,26.7363,""
1481.72,25.7378,19.9997,0.0550118,112.687,0.013753,28.1718,""
1584.93,25.8094,19.9995,0.0417292,117.644,0.0104323,29.411,""
1684.97,25.8965,20.0002,0.0322332,121.32,0.00805831,30.33,""
1807.3,25.7753,20.0001,0.0238824,124.721,0.0059706,31.1802,""
1969.32,25.8746,20.0001,0.0166018,127.954,0.00415045,31.9886,""
2179.81,25.8045,20,0.0110716,130.809,0.0027679,32.7022,""
2442.68,25.7926,20.0001,0.00749374,133.193,0.00187344,33.2982,""
2723.46,25.8062,19.9992,0.00561169,135.003,0.00140292,33.7507,""
3035.69,25.7622,20,0.00453608,136.569,0.00113402,34.1423,""
3383.98,25.7844,19.9996,0.00388388,138.025,0.000970969,34.5062,""
3937.31,25.7651,19.9999,0.00330777,139.999,0.000826942,34.9998,""
4505.86,25.7384,19.9998,0.00294567,141.77,0.000736417,35.4424,""
5038.79,25.8273,19.9997,0.00270531,143.272,0.000676327,35.8181,""
5706.41,25.7277,19.9999,0.00248709,145.001,0.000621772,36.2504,""
6452.88,25.7534,19.9999,0.00234792,146.798,0.00058698,36.6995,""
7013.97,25.7892,20,0.00232049,148.106,0.000580123,37.0264,""
8061.93,25.761,20,0.0023415,150.545,0.000585375,37.6362,""
8721.68,25.8205,20,0.0023675,152.098,0.000591874,38.0244,""
9451.75,25.7898,19.9998,0.00240248,153.838,0.000600621,38.4596,""
10091.2,26.0088,19.9996,0.00243993,155.386,0.000609981,38.8465,""
10556.5,25.8324,20.0001,0.00247224,156.529,0.000618059,39.1324,""
11127.6,25.8932,19.9995,0.00251873,157.954,0.000629682,39.4885,""
11647,25.9578,20,0.00256953,159.275,0.000642382,39.8187,""
12215.8,25.9333,20.0002,0.00263091,160.754,0.000657728,40.1884,""
12781.2,25.9086,19.9999,0.00269807,162.261,0.000674518,40.5651,""
13445.3,26.0075,19.9999,0.00278919,164.081,0.000697299,41.0202,""
14058.6,26.0515,19.9999,0.00289669,165.824,0.000724174,41.456,""
14629.5,25.917,19.9997,0.00297407,167.499,0.000743517,41.8747,""
15094.8,26.0273,20.0003,0.00304835,168.9,0.000762087,42.2249,""
15687,26.0131,19.9999,0.00315305,170.736,0.000788263,42.6839,""
16079.6,26.2071,19.9999,0.00322715,171.988,0.000806789,42.9969,""
16619.5,26.1201,19.9996,0.00333557,173.759,0.000833892,43.4398,""
17198.1,26.0197,19.9998,0.00346018,175.727,0.000865045,43.9317,""
17822.7,26.1127,19.9998,0.00360457,177.931,0.000901141,44.4827,""
18365.6,26.0306,19.9993,0.00373786,179.923,0.000934465,44.9808,""
18785.6,26.07,20,0.0038458,181.516,0.000961449,45.3789,""
19380.3,25.969,20,0.00400609,183.85,0.00100152,45.9626,""
19918.3,25.976,19.9998,0.00415793,186.046,0.00103948,46.5116,""
20356,25.9742,19.9997,0.0042862,187.894,0.00107155,46.9734,""
20904.5,26.2234,20,0.00445271,190.29,0.00111318,47.5726,""
21446.2,26.1214,19.9997,0.00462233,192.749,0.00115558,48.1872,""
22114.9,26.1862,20,0.00483869,195.911,0.00120967,48.9777,""
22789.5,25.7988,19.9998,0.00506521,199.252,0.0012663,49.8129,""
23328.3,25.7939,19.9999,0.00525085,202.031,0.00131271,50.5076,""
24054.6,25.8226,19.9998,0.00550719,205.936,0.0013768,51.484,""
24833,25.8111,19.9994,0.00578878,210.335,0.00144719,52.5837,""
25671.9,25.7193,19.9997,0.00609811,215.317,0.00152453,53.8294,""
26290.8,25.6767,20,0.0063285,219.163,0.00158212,54.7907,""
26871,25.705,20,0.00654624,222.898,0.00163656,55.7245,""
27660.4,25.7239,19.9997,0.00684268,228.185,0.00171067,57.0463,""
28435.8,25.6776,19.9999,0.00713272,233.601,0.00178318,58.4002,""
29204.3,25.6955,19.9997,0.00741752,239.192,0.00185438,59.798,""
29761.9,25.6803,19.9999,0.00762188,243.385,0.00190547,60.8462,""
30405.6,25.7132,20,0.00785408,248.366,0.00196352,62.0915,""
31425,25.6875,19.9998,0.00821243,256.556,0.00205311,64.139,""
32054.5,25.68,20.0002,0.00842711,261.795,0.00210678,65.4488,""
33078.2,25.6662,19.9998,0.00876792,270.599,0.00219198,67.6497,""
33840,25.7011,19.9999,0.00902884,277.374,0.00225721,69.3434,""
34560.7,25.5752,19.9994,0.00932034,283.982,0.00233008,70.9954,""
35196.4,25.5763,19.9999,0.00962053,290.001,0.00240513,72.5003,""
36003.8,25.6176,19.9999,0.00996928,297.915,0.00249232,74.4787,""
36662.9,25.5728,20,0.0102054,304.565,0.00255136,76.1412,""
37453.5,25.6174,19.9998,0.0104478,312.731,0.00261195,78.1828,""
38263.7,25.5895,19.9997,0.0106792,321.29,0.00266979,80.3226,""
39100.9,25.5932,19.9997,0.0108719,330.316,0.00271798,82.5791,""
39694.2,25.5499,20,0.0109719,336.797,0.00274298,84.1993,""
40347.7,25.6008,19.9998,0.0110566,343.997,0.00276416,85.9993,""
41182.5,25.6595,19.9999,0.0111318,353.261,0.00278294,88.3153,""
41949,25.591,20,0.0111711,361.81,0.00279276,90.4526,""
42619.2,25.6701,19.9999,0.011184,369.302,0.00279601,92.3256,""
43247,25.6207,19.9999,0.0111806,376.323,0.00279516,94.0808,""
43951.6,25.578,19.9996,0.0111591,384.194,0.00278979,96.0486,""
44642,25.6054,20.0001,0.0111238,391.887,0.00278094,97.9718,""
45301.8,25.6941,19.9999,0.0110775,399.212,0.00276937,99.803,""
45978.6,25.5374,19.9998,0.011019,406.69,0.00275475,101.672,""
46717.3,25.5678,19.9999,0.0109453,414.804,0.00273632,103.701,""
47611.4,25.5678,19.9998,0.0108457,424.546,0.00271142,106.136,""
48411.3,25.5424,19.9998,0.0107488,433.183,0.00268721,108.296,""
48985.5,25.5524,20,0.0106767,439.334,0.00266917,109.834,""
49683,25.5532,19.9998,0.0105867,446.749,0.00264667,111.687,""
50472.3,25.5342,19.9999,0.010483,455.065,0.00262075,113.766,""
51402.8,25.5192,19.9999,0.0103612,464.762,0.00259031,116.191,""
52151.7,25.4955,20,0.0102645,472.486,0.00256613,118.121,""
53111.8,25.4927,19.9998,0.0101439,482.282,0.00253597,120.571,""
53693.3,25.4759,20,0.0100737,488.16,0.00251842,122.04,""
54378.4,25.622,19.9999,0.00999106,495.032,0.00249777,123.758,""
55103.3,25.697,20,0.00990841,502.246,0.0024771,125.561,""
55980.3,25.6099,19.9995,0.00981822,510.894,0.00245456,127.724,""
56789.7,25.5472,19.9999,0.0097504,518.812,0.0024376,129.703,""
57537.8,25.5211,19.9999,0.00969873,526.087,0.00242468,131.522,""
58158.2,25.4434,19.9998,0.00965516,532.091,0.00241379,133.023,""
59005.2,25.5447,19.9998,0.00958626,540.241,0.00239657,135.06,""
59858.2,25.4672,19.9993,0.00949879,548.381,0.0023747,137.095,""
60400.1,25.4934,19.9997,0.00943968,553.513,0.00235992,138.378,""
61016.8,25.4753,19.9999,0.009374,559.314,0.0023435,139.828,""
62005.8,25.4771,19.9995,0.00926965,568.533,0.00231741,142.133,""
63266.7,25.4766,19.9996,0.00914049,580.139,0.00228512,145.035,""
64018.7,25.4644,20.0006,0.00906515,586.985,0.00226629,146.746,""
64874.5,25.4886,19.9998,0.00898107,594.706,0.00224527,148.677,""
65751.8,25.5623,19.9999,0.00889602,602.549,0.002224,150.637,""
66767.4,25.5275,19.9998,0.00879854,611.533,0.00219964,152.883,""
67465.5,25.4995,19.9997,0.00873624,617.653,0.00218406,154.413,""
68159.2,25.5077,19.9997,0.00867587,623.693,0.00216897,155.923,""
68924.8,25.5547,20,0.00860671,630.309,0.00215168,157.577,""
69557.6,25.6002,19.9999,0.00854815,635.737,0.00213704,158.934,""
70847.4,25.5411,20.0004,0.00842723,646.685,0.00210681,161.671,""
71556.4,25.5479,19.9997,0.00835803,652.635,0.00208951,163.159,""
72159.4,25.5351,19.9997,0.00829941,657.658,0.00207485,164.414,""
73136.6,25.5725,19.9998,0.00820235,665.721,0.00205059,166.43,""
73855.4,25.6769,20,0.00812932,671.591,0.00203233,167.898,""
74647.1,26.4958,20.0009,0.00804498,677.994,0.00201125,169.499,""
75325.7,26.4551,20.0005,0.00797161,683.428,0.0019929,170.857,""
76168.6,26.5788,20,0.00787956,690.108,0.00196989,172.527,""
76642.2,26.4535,19.9997,0.00782745,693.828,0.00195686,173.457,""
77264.5,26.5559,20.0005,0.00775932,698.677,0.00193983,174.669,""
77948.4,26.6602,19.9997,0.00768406,703.959,0.00192101,175.99,""
78605.4,26.6082,19.9997,0.00761237,708.983,0.00190309,177.246,""
79192.6,26.6723,20,0.00754795,713.435,0.00188699,178.359,""
80333.3,26.6367,19.9996,0.00742503,721.974,0.00185626,180.494,""
81261.8,26.6558,19.9998,0.007325,728.821,0.00183125,182.205,""
81881,26.6796,20,0.00725893,733.337,0.00181473,183.334,""
82714.6,26.6433,19.9995,0.00717118,739.351,0.00179279,184.838,""
83399.6,26.6459,19.9999,0.00709904,744.239,0.00177476,186.06,""
83963.2,26.6352,19.9996,0.00703994,748.224,0.00175999,187.056,""
84671.2,26.6631,19.9998,0.0069654,753.181,0.00174135,188.295,""
85377.8,26.5534,19.9996,0.00689175,758.076,0.00172294,189.519,""
85953.5,26.0368,19.9998,0.00683175,762.027,0.00170794,190.507,""
86472.3,26.7384,20,0.00677744,765.558,0.00169436,191.389,""
87253.9,26.7678,20.0002,0.00669644,770.823,0.00167411,192.706,""
88307.5,26.7612,20,0.00658728,777.821,0.00164682,194.455,""
88950.3,26.8216,20.0003,0.00652077,782.034,0.00163019,195.508,""
89532.8,26.7911,19.9999,0.00646048,785.815,0.00161512,196.454,""
90462.2,26.8125,20.0002,0.00636457,791.774,0.00159114,197.944,""
91216.5,26.8309,20.0002,0.00628615,796.545,0.00157154,199.136,""
91890,26.7854,19.9998,0.00621618,800.755,0.00155404,200.189,""
92432.4,26.7733,19.9999,0.00615946,804.112,0.00153986,201.028,""
93152.6,26.8068,19.9997,0.00608502,808.521,0.00152125,202.13,""
94130.9,26.7853,19.9999,0.00598277,814.424,0.00149569,203.606,""
94739.8,26.6286,19.9997,0.00591935,818.047,0.00147984,204.512,""
95593.1,26.6343,19.9994,0.00583042,823.061,0.0014576,205.765,""
96160.5,26.7464,20.0003,0.00577112,826.351,0.00144278,206.588,""
97123,26.3085,20.0006,0.00567192,831.859,0.00141798,207.965,""
97788.3,26.5043,19.9997,0.00560336,835.61,0.00140084,208.902,""
98548.5,26.495,19.9998,0.00552384,839.839,0.00138096,209.96,""
99032.5,26.5912,19.9998,0.00547325,842.5,0.00136831,210.625,""
99745.4,26.5032,20.0002,0.00539899,846.376,0.00134975,211.594,""
100409,26.5164,19.9998,0.00532976,849.934,0.00133244,212.484,""
101176,26.0999,19.9993,0.00524934,853.991,0.00131234,213.498,""
101816,25.471,19.9985,0.00518177,857.331,0.00129544,214.333,""
102345,25.9922,20.0003,0.00512585,860.058,0.00128146,215.015,""
102954,25.889,19.9998,0.00506175,863.159,0.00126544,215.79,""
103466,25.6598,19.9995,0.00500759,865.737,0.0012519,216.434,""
104181,25.5313,19.9995,0.00493316,869.292,0.00123329,217.323,""
104867,25.6243,19.9989,0.00486198,872.65,0.0012155,218.163,""
105489,25.5179,19.9996,0.00479791,875.656,0.00119948,218.914,""
106207,25.5154,19.9994,0.00472505,879.074,0.00118126,219.769,""
106866,25.3994,19.9998,0.00465926,882.166,0.00116481,220.542,""
107502,25.4715,19.9996,0.0045966,885.11,0.00114915,221.277,""
108149,25.5787,20,0.00453339,888.061,0.00113335,222.015,""
108749,25.5575,19.9997,0.00447723,890.763,0.00111931,222.691,""
109279,25.3546,20.0002,0.00442805,893.126,0.00110701,223.282,""
109990,25.4339,19.9998,0.00436387,896.251,0.00109097,224.063,""
110558,25.4436,19.9999,0.00431489,898.716,0.00107872,224.679,""
111324,25.3774,19.9999,0.00425016,901.996,0.00106254,225.499,""
111832,25.5149,20.0004,0.00420903,904.146,0.00105226,226.036,""
112502,25.3926,19.9999,0.00415597,906.943,0.00103899,226.736,""
113343,25.5348,20,0.00409247,910.413,0.00102312,227.603,""
113853,25.4119,19.9997,0.00405533,912.492,0.00101383,228.123,""
114441,25.5118,20.0002,0.00401473,914.864,0.00100368,228.716,""
115258,25.4162,19.9996,0.00396004,918.121,0.000990009,229.53,""
115832,25.3598,19.9999,0.00392339,920.384,0.000980848,230.096,""
116514,25.5332,20.0001,0.00388041,923.044,0.000970104,230.761,""
117011,25.5811,20.0002,0.00385075,924.968,0.000962688,231.242,""
117620,25.6014,19.9996,0.00381484,927.303,0.00095371,231.826,""
118369,25.5405,19.9997,0.00377258,930.14,0.000943145,232.535,""
118910,25.2262,19.9997,0.00374207,932.174,0.000935516,233.044,""
119684,25.1813,19.9998,0.00370114,935.056,0.000925285,233.764,""
120416,25.5922,20.0003,0.00366326,937.749,0.000915814,234.437,""
120927,25.6528,20.0002,0.00363769,939.614,0.000909421,234.903,""
121847,25.2792,19.9994,0.00359152,942.939,0.000897879,235.735,""
122470,25.2046,19.9998,0.00356186,945.17,0.000890465,236.292,""
123493,25.2392,19.9998,0.00351423,948.79,0.000878558,237.197,""
124011,25.232,19.9999,0.00349066,950.602,0.000872666,237.65,""
124602,25.2723,19.9998,0.00346445,952.656,0.000866113,238.164,""
125464,25.2462,19.9996,0.00342702,955.628,0.000856756,238.907,""
126132,25.3646,19.9996,0.00339867,957.906,0.000849667,239.477,""
126678,25.4118,20,0.00337533,959.757,0.000843833,239.939,""
127584,25.2352,19.9995,0.00333783,962.796,0.000834458,240.699,""
128354,25.2173,20,0.00330686,965.356,0.000826714,241.339,""
129246,25.1823,20.0001,0.00327265,968.289,0.000818163,242.072,""
130142,25.3267,20,0.00323785,971.206,0.000809463,242.801,""
130797,25.3164,19.9998,0.00321343,973.322,0.000803357,243.33,""
131529,25.1444,19.9997,0.00318641,975.663,0.000796603,243.916,""
132192,25.2133,19.9992,0.00316267,977.768,0.000790667,244.442,""
132898,25.3114,20,0.00313847,979.992,0.000784618,244.998,""
133762,25.1547,19.9999,0.00310907,982.689,0.000777266,245.672,""
134492,25.1138,20.0002,0.00308392,984.951,0.000770979,246.238,""
135389,25.0676,20.0001,0.00305403,987.705,0.000763507,246.926,""
136121,25.0305,20,0.00303057,989.93,0.000757643,247.483,""
137215,25.0579,20,0.00299489,993.225,0.000748721,248.306,""
137968,25.1141,19.9999,0.00297129,995.472,0.000742822,248.868,""
138633,25.0509,19.9998,0.0029513,997.443,0.000737826,249.361,""
139277,25.1327,19.9998,0.00293138,999.336,0.000732846,249.834,""
140154,25.0952,19.9998,0.00290554,1001.9,0.000726386,250.474,""
141002,25.0328,19.9996,0.00288019,1004.35,0.000720047,251.087,""
141664,25.0978,19.9997,0.00286078,1006.25,0.000715194,251.562,""
142319,25.1075,20,0.00284304,1008.12,0.000710759,252.03,""
143036,25.0846,19.9998,0.00282281,1010.15,0.000705704,252.537,""
144100,25.0865,20,0.00279373,1013.14,0.000698432,253.284,""
144650,25.0907,19.9997,0.00277916,1014.67,0.000694791,253.667,""
145710,25.1444,19.9998,0.00275045,1017.6,0.000687612,254.4,""
146636,25.0786,19.9995,0.00272693,1020.14,0.000681733,255.034,""
147264,25.0316,19.9997,0.00271108,1021.84,0.000677771,255.461,""
147968,25.1333,20.0004,0.00269352,1023.74,0.000673379,255.936,""
148642,25.1525,19.9996,0.00267683,1025.56,0.000669208,256.389,""
149369,25.1282,19.9996,0.00265882,1027.5,0.000664706,256.874,""
150128,25.1669,20.0006,0.00264015,1029.51,0.000660038,257.376,""
151248,25.1905,19.9999,0.00261419,1032.45,0.000653547,258.112,""
152373,24.9701,19.9997,0.00258814,1035.38,0.000647035,258.844,""
152979,24.9724,19.9998,0.00257444,1036.94,0.00064361,259.235,""
153668,24.9635,19.9996,0.00255893,1038.71,0.000639734,259.677,""
154668,24.9846,19.9998,0.00253716,1041.25,0.00063429,260.314,""
155363,25.0532,20.0002,0.00252164,1043.01,0.000630411,260.754,""
156014,25.0628,19.9996,0.00250788,1044.65,0.00062697,261.163,""
156912,25.0806,19.9999,0.0024892,1046.89,0.000622299,261.724,""
157857,25.1818,19.9995,0.00246943,1049.24,0.000617357,262.309,""
158660,25.1758,20,0.0024529,1051.21,0.000613224,262.803,""
159287,25.2328,20.0003,0.00244072,1052.75,0.00061018,263.187,""
159826,25.2819,19.9999,0.00243022,1054.06,0.000607555,263.515,""
160553,25.2841,19.9997,0.00241654,1055.82,0.000604135,263.956,""
161250,25.1876,20,0.00240372,1057.5,0.000600931,264.376,""
162029,25.155,19.9999,0.00238905,1059.37,0.000597263,264.842,""
162759,25.1533,20.001,0.00237553,1061.11,0.000593883,265.277,""
163694,25.1365,19.9995,0.00235821,1063.32,0.000589553,265.83,""
164488,25.1647,20.0001,0.00234324,1065.19,0.000585809,266.297,""
165400,25.1558,19.9999,0.00232619,1067.32,0.000581548,266.829,""
166321,25.165,19.9999,0.00231006,1069.45,0.000577515,267.363,""
167323,25.3933,19.9998,0.00229242,1071.76,0.000573106,267.939,""
167859,25.3819,19.9998,0.00228304,1072.98,0.000570759,268.246,""
168680,25.2737,19.9999,0.00226962,1074.85,0.000567404,268.713,""
169353,25.2881,20.0001,0.00225905,1076.38,0.000564762,269.094,""
170077,25.3745,20.0002,0.00224687,1078.01,0.000561719,269.501,""
170704,25.3182,19.9998,0.00223733,1079.41,0.000559332,269.853,""
171632,25.2676,20.0001,0.00222278,1081.48,0.000555695,270.37,""
172406,25.2867,20.0003,0.00221012,1083.2,0.000552531,270.799,""
173291,25.2588,19.9998,0.00219679,1085.15,0.000549198,271.287,""
174121,25.4199,20.0003,0.00218405,1086.97,0.000546013,271.741,""
174902,25.2709,19.9997,0.00217198,1088.67,0.000542994,272.167,""
175665,25.2578,19.9995,0.00216188,1090.32,0.000540469,272.58,""
176413,25.1861,19.9998,0.00215143,1091.93,0.000537856,272.983,""
176899,25.3285,20.0001,0.002144,1092.98,0.000536,273.244,""
177636,25.2752,19.9999,0.00213394,1094.55,0.000533485,273.638,""
178340,25.2676,19.9997,0.0021239,1096.05,0.000530974,274.013,""
179072,25.3072,19.9997,0.00211398,1097.6,0.000528495,274.401,""
179770,25.2246,19.9999,0.00210458,1099.08,0.000526145,274.769,""
180526,25.1721,19.9997,0.00209455,1100.66,0.000523637,275.166,""
181123,25.1846,19.9999,0.00208681,1101.91,0.000521703,275.478,""
182060,25.2211,20.0001,0.00207456,1103.86,0.000518639,275.965,""
182935,25.2265,19.9999,0.00206316,1105.67,0.00051579,276.417,""
183785,25.1556,20.0002,0.00205269,1107.42,0.000513173,276.855,""
184435,25.0742,19.9992,0.00204463,1108.75,0.000511159,277.188,""
185620,25.1766,19.9996,0.00203085,1111.17,0.000507713,277.791,""
186404,25.3014,19.9999,0.00202214,1112.75,0.000505535,278.189,""
187087,25.3074,20.0004,0.00201393,1114.13,0.000503482,278.533,""
187761,25.2023,19.9999,0.00200616,1115.49,0.000501539,278.872,""
188458,25.3615,19.9997,0.00199794,1116.88,0.000499484,279.221,""
189251,25.3791,20.0001,0.00198862,1118.46,0.000497155,279.616,""
189817,25.332,19.9994,0.0019823,1119.59,0.000495576,279.897,""
190639,25.2666,20.0001,0.00197367,1121.21,0.000493416,280.304,""
191335,25.3236,19.9997,0.00196581,1122.58,0.000491453,280.646,""
191971,25.3399,19.9997,0.00195971,1123.83,0.000489927,280.958,""
192820,25.3045,19.9999,0.001951,1125.49,0.000487751,281.373,""
193495,25.2946,19.9999,0.00194415,1126.81,0.000486036,281.702,""
194237,25.3046,19.9996,0.00193538,1128.25,0.000483844,282.062,""
194952,25.3102,20,0.00192804,1129.63,0.00048201,282.407,""
195795,25.3152,19.9997,0.00192059,1131.25,0.000480149,282.813,""
196875,25.3639,20.0001,0.00191056,1133.32,0.000477641,283.33,""
197616,25.3381,19.9999,0.0019036,1134.73,0.000475901,283.683,""
198272,25.3382,20,0.00189756,1135.98,0.00047439,283.994,""
198884,25.3457,19.9998,0.00189201,1137.14,0.000473002,284.285,""
199496,25.8126,20.0002,0.00188636,1138.3,0.000471589,284.574,""
200068,25.9444,20.0006,0.0018809,1139.37,0.000470225,284.843,""
200492,26.112,19.9997,0.00187804,1140.17,0.000469511,285.042,""
200983,25.9098,20,0.00187391,1141.09,0.000468478,285.272,""
201377,26.2389,20.0004,0.00187057,1141.83,0.000467641,285.457,""
202066,26.311,19.9999,0.00186524,1143.11,0.000466311,285.779,""
202481,25.971,19.9995,0.00186129,1143.89,0.000465322,285.972,""
202901,25.6467,19.9996,0.00185798,1144.67,0.000464495,286.167,""
203525,25.5173,19.9998,0.00185205,1145.83,0.000463012,286.457,""
204468,25.7672,20.0004,0.00184352,1147.57,0.000460879,286.892,""
204973,25.8228,20.0002,0.00183886,1148.5,0.000459714,287.124,""
205446,25.8664,20,0.00183424,1149.37,0.000458559,287.342,""
205973,25.6158,19.9992,0.00182937,1150.33,0.000457343,287.583,""
206466,25.8865,19.9998,0.00182505,1151.23,0.000456262,287.808,""
207047,25.242,19.9999,0.0018202,1152.29,0.000455049,288.073,""
207532,25.1956,19.9997,0.00181624,1153.17,0.00045406,288.293,""
208080,25.7747,20,0.00181176,1154.17,0.000452939,288.542,""
208705,25.9268,20,0.00180673,1155.3,0.000451681,288.825,""
209281,25.6763,19.9997,0.00180199,1156.34,0.000450497,289.085,""
210018,25.6008,20,0.00179652,1157.67,0.00044913,289.416,""
210649,25.4166,19.9997,0.00179119,1158.8,0.000447798,289.699,""
211380,25.377,19.9999,0.00178564,1160.1,0.000446411,290.026,""
211955,25.2275,19.9995,0.00178088,1161.13,0.000445221,290.282,""
212664,25.2804,19.9997,0.00177522,1162.39,0.000443805,290.597,""
213686,25.2949,19.9997,0.00176781,1164.2,0.000441952,291.05,""
214571,25.3153,20,0.00176154,1165.76,0.000440385,291.441,""
215527,25.3182,19.9996,0.00175417,1167.44,0.000438543,291.861,""
216529,25.3508,20,0.00174741,1169.2,0.000436853,292.299,""
217528,25.2891,20,0.00174042,1170.94,0.000435104,292.735,""
218405,25.2696,19.9997,0.0017343,1172.46,0.000433574,293.116,""
219402,25.2674,19.9999,0.00172719,1174.19,0.000431797,293.547,""
220006,25.3182,19.9998,0.001723,1175.23,0.000430749,293.808,""
220664,25.3101,19.9999,0.00171829,1176.36,0.000429574,294.091,""
221520,25.4396,20,0.00171249,1177.83,0.000428122,294.458,""
222313,25.3358,19.9997,0.00170747,1179.19,0.000426868,294.797,""
223082,25.35,19.9998,0.00170214,1180.5,0.000425536,295.125,""
223821,25.3357,19.9999,0.00169745,1181.76,0.000424363,295.439,""
224942,25.3325,20,0.00168989,1183.65,0.000422472,295.913,""
226001,25.3095,19.9998,0.00168336,1185.44,0.000420841,296.36,""
226589,25.3317,19.9997,0.00167929,1186.43,0.000419822,296.607,""
227463,25.3129,19.9999,0.00167339,1187.89,0.000418347,296.973,""
228412,25.2718,19.9999,0.00166718,1189.48,0.000416795,297.369,""
229019,25.2565,19.9996,0.0016635,1190.49,0.000415876,297.622,""
229764,25.3166,20.0001,0.00165876,1191.73,0.00041469,297.932,""
230498,25.3068,19.9998,0.00165371,1192.94,0.000413427,298.235,""
231427,25.3339,20,0.00164796,1194.48,0.00041199,298.619,""
232203,25.3028,19.9998,0.00164267,1195.75,0.000410667,298.938,""
232972,25.2778,19.9996,0.00163834,1197.01,0.000409585,299.253,""
233632,25.3388,19.9997,0.00163456,1198.09,0.000408639,299.524,""
234307,25.3039,19.9998,0.00163028,1199.2,0.000407571,299.799,""
235227,25.3307,19.9996,0.00162436,1200.69,0.00040609,300.173,""
235997,25.3713,19.9999,0.00161904,1201.94,0.00040476,300.485,""
236791,25.3339,19.9996,0.00161481,1203.23,0.000403701,300.806,""
237476,25.3622,19.9999,0.00161121,1204.33,0.000402802,301.082,""
238050,25.364,19.9999,0.00160746,1205.25,0.000401865,301.314,""
239136,25.3896,19.9996,0.00160113,1207,0.000400282,301.749,""
240089,25.3669,20.0003,0.00159564,1208.52,0.000398909,302.13,""
241022,25.4454,19.9999,0.00159074,1210.01,0.000397686,302.502,""
241948,25.4266,19.9997,0.00158562,1211.48,0.000396405,302.869,""
243089,26.0663,20.0005,0.00157913,1213.28,0.000394783,303.321,""
243525,26.1096,20.0002,0.00157663,1213.97,0.000394157,303.493,""
243931,26.0543,20,0.00157467,1214.61,0.000393668,303.652,""
244494,26.2624,19.9999,0.00157148,1215.5,0.000392869,303.874,""
245236,26.2444,20,0.00156739,1216.66,0.000391847,304.165,""
245823,26.2757,19.9997,0.00156447,1217.58,0.000391118,304.395,""
246399,26.1989,19.9998,0.00156148,1218.48,0.00039037,304.62,""
247150,26.1714,19.9994,0.00155762,1219.65,0.000389406,304.913,""
248124,26.1983,19.9997,0.00155196,1221.17,0.000387991,305.291,""
248960,26.1998,19.9998,0.00154656,1222.46,0.000386641,305.615,""
249968,26.1827,19.9998,0.00154063,1224.02,0.000385159,306.004,""
250722,26.1913,20,0.0015361,1225.18,0.000384026,306.294,""
251492,26.2476,20,0.00153109,1226.36,0.000382774,306.589,""
252259,26.2247,19.9996,0.00152626,1227.53,0.000381566,306.882,""
253052,26.194,19.9995,0.00152253,1228.74,0.000380631,307.185,""
253788,26.1933,19.9996,0.00151762,1229.86,0.000379406,307.464,""
254421,26.2255,20,0.00151453,1230.82,0.000378633,307.704,""
255402,26.2832,19.9998,0.00150836,1232.3,0.00037709,308.075,""
255942,26.1805,20,0.00150536,1233.11,0.000376339,308.278,""
256727,26.1422,20.0003,0.00150049,1234.29,0.000375124,308.573,""
257383,26.2592,20,0.00149613,1235.28,0.000374033,308.819,""
258048,26.2765,20.0001,0.00149227,1236.27,0.000373067,309.068,""
258851,26.2986,19.9999,0.00148741,1237.47,0.000371852,309.366,""
259690,26.3014,20.0001,0.00148277,1238.71,0.000370692,309.678,""
260387,26.1382,19.9994,0.00147838,1239.74,0.000369596,309.936,""
261170,26.192,20.0003,0.00147456,1240.9,0.00036864,310.225,""
261943,26.1674,19.9991,0.00147058,1242.04,0.000367646,310.51,""
262792,26.1894,19.9999,0.00146598,1243.28,0.000366495,310.821,""
263411,26.3363,19.9997,0.00146258,1244.19,0.000365645,311.048,""
264073,26.3013,20,0.00145911,1245.16,0.000364778,311.29,""
264674,26.249,19.9989,0.00145569,1246.03,0.000363923,311.509,""
265312,26.2817,20.0002,0.00145212,1246.96,0.000363029,311.741,""
266032,26.294,20,0.00144841,1248.01,0.000362102,312.002,""
266787,26.3088,20.0001,0.00144441,1249.1,0.000361102,312.275,""
267590,26.3192,19.9996,0.00144037,1250.26,0.000360093,312.564,""
268273,26.3371,20.0001,0.00143629,1251.24,0.000359074,312.81,""
268878,26.3346,19.999,0.00143253,1252.11,0.000358132,313.027,""
269589,26.1187,19.9994,0.00142847,1253.12,0.000357118,313.281,""
270167,26.0978,20,0.00142565,1253.95,0.000356413,313.487,""
270945,25.7631,19.9996,0.00142158,1255.06,0.000355396,313.764,""
271575,25.7877,19.9999,0.0014178,1255.95,0.00035445,313.988,""
272378,25.3732,19.9997,0.00141299,1257.09,0.000353247,314.272,""
272914,25.3497,19.9997,0.00140963,1257.84,0.000352408,314.461,""
273511,25.5253,20,0.00140633,1258.69,0.000351582,314.671,""
274187,25.463,19.9997,0.00140203,1259.63,0.000350508,314.908,""
274743,25.52,19.9999,0.00139895,1260.41,0.000349739,315.103,""
275660,25.2833,19.9996,0.00139368,1261.69,0.000348421,315.423,""
276436,25.2801,19.9998,0.00138932,1262.77,0.000347329,315.693,""
277377,25.3419,19.9995,0.00138499,1264.08,0.000346247,316.019,""
278269,25.3332,19.9994,0.00138013,1265.31,0.000345032,316.328,""
278979,25.3664,19.9997,0.00137698,1266.29,0.000344245,316.572,""
279607,25.3304,19.9995,0.00137386,1267.15,0.000343466,316.788,""
280321,25.3395,20,0.00137006,1268.13,0.000342516,317.033,""
281188,25.3014,20,0.00136563,1269.32,0.000341408,317.33,""
281780,25.3574,19.9999,0.00136228,1270.13,0.000340571,317.531,""
282561,25.3483,19.9999,0.00135797,1271.19,0.000339492,317.797,""
283280,25.3834,19.9999,0.00135423,1272.16,0.000338558,318.041,""
284139,25.3762,20.0001,0.00135012,1273.32,0.00033753,318.331,""
284962,25.3609,19.9998,0.00134567,1274.43,0.000336417,318.609,""
286139,25.3901,19.9998,0.0013396,1276.02,0.000334901,319.004,""
287215,25.4026,20.0001,0.00133407,1277.45,0.000333517,319.363,""
288396,25.4009,19.9998,0.00132799,1279.03,0.000331998,319.756,""
289160,25.405,20,0.00132436,1280.04,0.000331091,320.01,""
289842,25.4659,19.9998,0.00132097,1280.94,0.000330243,320.235,""
290805,25.4168,20,0.00131576,1282.21,0.00032894,320.552,""
291605,25.3692,19.9998,0.0013118,1283.26,0.000327949,320.815,""
292414,25.4278,20.0012,0.00130789,1284.32,0.000326972,321.08,""
293082,25.398,20.0001,0.00130463,1285.19,0.000326158,321.298,""
294110,25.4381,19.9998,0.00129929,1286.53,0.000324824,321.633,""
295145,25.4693,20,0.00129394,1287.87,0.000323485,321.969,""
295978,25.4264,19.9998,0.00128966,1288.95,0.000322414,322.237,""
296717,25.4015,19.9998,0.0012857,1289.9,0.000321426,322.475,""
297405,25.4738,19.9998,0.00128205,1290.78,0.000320512,322.696,""
298314,25.4544,19.9998,0.00127653,1291.95,0.000319132,322.987,""
299399,25.4346,19.9997,0.00127099,1293.33,0.000317747,323.332,""
300241,25.4466,19.9999,0.00126673,1294.4,0.000316682,323.599,""
301155,25.4326,19.9995,0.00126219,1295.55,0.000315547,323.888,""
301910,25.3749,20,0.00125864,1296.5,0.000314659,324.126,""
302541,25.4821,19.9998,0.00125577,1297.3,0.000313943,324.324,""
303152,25.4583,20,0.00125296,1298.06,0.00031324,324.516,""
304351,25.4947,20.0002,0.00124636,1299.56,0.000311591,324.891,""
305051,25.4367,19.9996,0.00124313,1300.43,0.000310783,325.109,""
305949,25.4149,19.9999,0.00123875,1301.55,0.000309688,325.387,""
306956,25.4658,19.9998,0.00123326,1302.79,0.000308316,325.698,""
307741,25.4247,19.9999,0.00122931,1303.76,0.000307328,325.94,""
308563,25.4108,20,0.0012248,1304.77,0.0003062,326.192,""
309645,25.4557,20.0001,0.00121964,1306.09,0.00030491,326.522,""
310604,25.4434,19.9999,0.00121488,1307.26,0.000303719,326.814,""
311343,25.3881,19.9993,0.00121083,1308.15,0.000302708,327.038,""
312385,25.4322,19.9997,0.00120553,1309.41,0.000301381,327.353,""
313154,25.4442,19.9999,0.00120179,1310.34,0.000300447,327.585,""
314209,25.4008,19.9999,0.00119649,1311.6,0.000299121,327.901,""
315105,25.4407,19.9997,0.00119191,1312.67,0.000297978,328.168,""
315832,25.3997,19.9999,0.00118833,1313.54,0.000297083,328.385,""
316444,25.4118,19.9998,0.0011853,1314.26,0.000296326,328.566,""
316988,25.4383,20.0004,0.00118247,1314.91,0.000295618,328.727,""
317459,25.4386,19.9995,0.00117991,1315.47,0.000294977,328.866,""
318080,25.441,20.0002,0.00117667,1316.2,0.000294168,329.049,""
318722,25.3893,19.9999,0.00117395,1316.95,0.000293489,329.238,""
319637,25.4007,20,0.00116952,1318.02,0.00029238,329.506,""
320378,25.4708,19.9995,0.00116621,1318.89,0.000291554,329.722,""
321218,25.3606,19.9998,0.00116156,1319.87,0.000290389,329.967,""
322283,25.4469,19.9999,0.00115591,1321.1,0.000288978,330.275,""
323281,25.4505,20.0001,0.00115119,1322.25,0.000287798,330.563,""
324020,25.4934,20,0.00114795,1323.1,0.000286987,330.776,""
324814,25.4571,19.9997,0.00114421,1324.01,0.000286053,331.003,""
325497,25.4718,19.9995,0.00114091,1324.79,0.000285227,331.198,""
326102,25.4418,20,0.00113814,1325.48,0.000284536,331.37,""
326869,25.4755,19.9997,0.00113456,1326.35,0.00028364,331.588,""
327778,25.4798,19.9999,0.0011306,1327.38,0.00028265,331.846,""
329042,25.4455,20.0001,0.00112451,1328.81,0.000281128,332.202,""
329888,25.4499,20,0.00112068,1329.76,0.000280169,332.439,""
330580,25.4928,19.9998,0.00111728,1330.53,0.000279321,332.633,""
331554,25.4389,19.9998,0.00111267,1331.62,0.000278168,332.904,""
332703,25.4809,19.9998,0.00110739,1332.89,0.000276848,333.223,""
333724,25.4766,19.9995,0.00110272,1334.02,0.000275679,333.506,""
335023,25.5714,20,0.00109651,1335.45,0.000274127,333.862,""
335770,25.5996,19.9996,0.00109242,1336.27,0.000273106,334.067,""
336745,25.5212,19.9996,0.00108773,1337.33,0.000271933,334.333,""
337884,25.5007,19.9998,0.00108272,1338.57,0.00027068,334.642,""
338671,25.526,20,0.00107914,1339.42,0.000269785,334.854,""
339678,25.5504,19.9999,0.00107426,1340.5,0.000268565,335.126,""
340576,25.5197,19.9996,0.00107001,1341.46,0.000267502,335.366,""
341730,25.5551,19.9996,0.00106508,1342.7,0.00026627,335.674,""
342465,25.5358,19.9999,0.00106146,1343.48,0.000265365,335.87,""
343317,25.5522,20.0001,0.00105721,1344.38,0.000264304,336.095,""
344208,25.5755,19.9998,0.00105355,1345.32,0.000263387,336.33,""
345261,25.5402,19.9997,0.00104877,1346.43,0.000262193,336.607,""
346238,25.6424,19.9998,0.00104438,1347.45,0.000261095,336.862,""
347066,25.6492,20.0002,0.00104057,1348.31,0.000260143,337.078,""
347974,25.6795,19.9999,0.0010364,1349.26,0.000259099,337.314,""
348804,25.6636,19.9998,0.00103285,1350.11,0.000258212,337.529,""
349852,25.6548,19.9998,0.00102778,1351.19,0.000256945,337.799,""
350510,25.6057,19.9998,0.0010248,1351.87,0.0002562,337.968,""
351294,25.5756,19.9999,0.00102167,1352.67,0.000255417,338.168,""
352015,25.5996,19.9997,0.0010186,1353.41,0.00025465,338.352,""
352706,25.8757,19.9999,0.00101573,1354.11,0.000253933,338.528,""
353622,25.6652,19.9999,0.00101166,1355.04,0.000252914,338.76,""
354733,25.7275,19.9998,0.00100642,1356.16,0.000251605,339.04,""
355430,25.7617,20.0001,0.00100356,1356.86,0.00025089,339.215,""
356260,25.595,20.0001,0.00100017,1357.69,0.000250043,339.423,""
356915,25.6344,20,0.000996942,1358.35,0.000249235,339.587,""
357865,25.7227,19.9996,0.000992379,1359.29,0.000248095,339.823,""
358457,25.6345,19.9997,0.000990231,1359.88,0.000247558,339.97,""
359302,25.7281,20.0001,0.000986989,1360.71,0.000246747,340.179,""
360049,25.7017,20,0.000983425,1361.45,0.000245856,340.363,""
360565,25.6598,19.9998,0.000981446,1361.96,0.000245361,340.489,""
361140,25.6295,20.0003,0.000979395,1362.52,0.000244849,340.63,""
361945,25.5783,19.9998,0.000975969,1363.31,0.000243992,340.827,""
362570,25.6469,19.9999,0.000973456,1363.92,0.000243364,340.979,""
363011,25.872,19.9998,0.000972086,1364.35,0.000243022,341.087,""
363680,25.775,19.9998,0.00096949,1365,0.000242373,341.249,""
364641,25.5908,19.9999,0.000964831,1365.92,0.000241208,341.481,""
365288,25.7003,19.9991,0.000962213,1366.55,0.000240553,341.637,""
366170,25.7819,19.9999,0.000958563,1367.4,0.000239641,341.849,""
366909,25.6797,20.0008,0.00095613,1368.1,0.000239032,342.026,""
367612,25.7487,19.9997,0.000953175,1368.77,0.000238294,342.194,""
368461,25.7943,20.0001,0.000949356,1369.58,0.000237339,342.395,""
369941,25.6751,19.9998,0.00094398,1370.98,0.000235995,342.746,""
370947,25.6289,19.9998,0.000939742,1371.93,0.000234936,342.982,""
371629,25.6119,19.9998,0.000937049,1372.57,0.000234262,343.143,""
372386,25.773,20,0.000934449,1373.28,0.000233612,343.32,""
373168,25.7143,19.9998,0.000931452,1374.01,0.000232863,343.502,""
373992,25.6824,19.9998,0.00092848,1374.77,0.00023212,343.694,""
374794,25.6525,20,0.00092515,1375.52,0.000231288,343.88,""
375615,25.6709,19.9997,0.000922169,1376.28,0.000230542,344.069,""
376672,25.638,19.9996,0.000918064,1377.25,0.000229516,344.312,""
377282,25.634,20,0.00091583,1377.81,0.000228957,344.452,""
378125,25.5582,19.9988,0.000912273,1378.58,0.000228068,344.645,""
378831,25.6581,19.9999,0.000909519,1379.22,0.00022738,344.805,""
379448,25.6036,19.9998,0.000907296,1379.78,0.000226824,344.946,""
380187,25.6402,19.9998,0.00090486,1380.45,0.000226215,345.113,""
380880,25.6401,20.0004,0.000902148,1381.08,0.000225537,345.27,""
381614,25.6507,19.9994,0.000899218,1381.74,0.000224805,345.435,""
382372,25.6637,19.9996,0.000896312,1382.42,0.000224078,345.605,""
383137,25.6659,20,0.000893334,1383.1,0.000223334,345.776,""
383905,25.7127,20.0001,0.000890526,1383.79,0.000222631,345.947,""
384819,25.7471,19.9997,0.000886687,1384.6,0.000221672,346.15,""
385391,25.7201,19.9997,0.000884416,1385.11,0.000221104,346.277,""
386351,25.7077,19.9999,0.000880869,1385.95,0.000220217,346.489,""
387160,25.7265,19.9998,0.00087814,1386.67,0.000219535,346.666,""
387944,25.7494,19.9997,0.000874797,1387.35,0.000218699,346.838,""
388842,25.6575,20.0002,0.000871398,1388.14,0.000217849,347.034,""
389798,25.7311,19.9999,0.000867875,1388.97,0.000216969,347.242,""
390450,25.7129,19.9998,0.000865261,1389.53,0.000216315,347.383,""
391203,25.7099,20,0.000862926,1390.18,0.000215732,347.546,""
392051,25.6788,19.9995,0.000859751,1390.91,0.000214938,347.729,""
392801,25.7721,20.0002,0.000857239,1391.56,0.00021431,347.89,""
393607,25.6394,19.9999,0.000854303,1392.25,0.000213576,348.062,""
394406,25.7029,19.9996,0.000851597,1392.93,0.000212899,348.232,""
395397,25.7074,19.9999,0.000848169,1393.77,0.000212042,348.443,""
396289,25.717,19.9997,0.000845033,1394.53,0.000211258,348.632,""
397232,25.7347,20,0.000841705,1395.32,0.000210426,348.83,""
397971,25.7046,19.9998,0.000839043,1395.94,0.000209761,348.986,""
398765,25.656,19.9998,0.00083645,1396.61,0.000209112,349.152,""
399732,25.687,19.9999,0.000833184,1397.42,0.000208296,349.354,""
400586,25.6681,19.9999,0.000829877,1398.13,0.000207469,349.531,""
401340,25.755,19.9998,0.000827683,1398.75,0.000206921,349.688,""
402469,25.6867,19.9995,0.000823284,1399.68,0.000205821,349.921,""
403471,25.6782,19.9999,0.000820361,1400.51,0.00020509,350.127,""
404528,25.6377,19.9997,0.000816767,1401.37,0.000204192,350.343,""
405730,25.6549,19.9998,0.000812961,1402.35,0.00020324,350.588,""
406708,25.7126,19.9997,0.000809111,1403.14,0.000202278,350.786,""
407484,25.6231,19.9999,0.000806512,1403.77,0.000201628,350.943,""
409182,25.7338,19.9999,0.000801186,1405.14,0.000200296,351.284,""
410108,25.6748,19.9996,0.000798102,1405.88,0.000199525,351.469,""
410750,25.7067,19.9999,0.000796127,1406.39,0.000199032,351.597,""
411750,25.676,19.9999,0.000792917,1407.18,0.000198229,351.796,""
412443,25.7096,19.9998,0.00079068,1407.73,0.00019767,351.933,""
413706,25.66,19.9995,0.000786946,1408.73,0.000196736,352.182,""
414815,25.6621,19.9999,0.000783604,1409.6,0.000195901,352.4,""
415612,25.5571,20.0002,0.000781292,1410.22,0.000195323,352.556,""
416482,25.6226,19.9999,0.000778381,1410.9,0.000194595,352.725,""
417558,25.6304,20,0.000774178,1411.74,0.000193545,352.934,""
418374,25.6507,19.9998,0.000771909,1412.37,0.000192977,353.092,""
419350,25.6032,19.9999,0.000769006,1413.12,0.000192252,353.28,""
419968,25.5215,19.9999,0.00076685,1413.59,0.000191712,353.398,""
420820,25.6583,19.9998,0.000764226,1414.25,0.000191057,353.561,""
421654,25.6156,19.9997,0.000761623,1414.88,0.000190406,353.72,""
422814,25.5837,20.0005,0.000758056,1415.76,0.000189514,353.941,""
423792,25.6121,19.9995,0.000755301,1416.5,0.000188825,354.126,""
424466,25.5847,20.0003,0.000753022,1417.01,0.000188255,354.253,""
425234,25.5827,20,0.000750593,1417.59,0.000187648,354.397,""
425989,25.5199,19.9998,0.000748258,1418.15,0.000187065,354.539,""
426805,25.5362,19.9993,0.000745942,1418.76,0.000186485,354.691,""
427588,25.6733,20,0.000743666,1419.35,0.000185917,354.837,""
428330,25.585,19.9999,0.000741133,1419.9,0.000185283,354.975,""
428811,25.5495,19.9996,0.000739936,1420.26,0.000184984,355.064,""
429941,25.5597,19.9997,0.000736603,1421.09,0.000184151,355.272,""
430925,25.7077,19.9997,0.000733661,1421.81,0.000183415,355.453,""
431968,25.6738,20,0.000730923,1422.58,0.000182731,355.644,""
432935,25.5008,20,0.000728204,1423.28,0.000182051,355.82,""
433554,25.6371,19.9999,0.00072602,1423.73,0.000181505,355.933,""
434511,25.6228,19.9997,0.00072306,1424.43,0.000180765,356.106,""
435137,25.5969,20.0002,0.000721366,1424.88,0.000180341,356.219,""
435749,25.5754,20,0.0007193,1425.32,0.000179825,356.33,""
436444,25.5599,19.9998,0.000717279,1425.82,0.00017932,356.454,""
437294,25.5015,20,0.000715434,1426.43,0.000178859,356.607,""
438006,25.5734,20.0002,0.000713162,1426.94,0.000178291,356.734,""
438779,25.5157,20.0001,0.000711072,1427.49,0.000177768,356.871,""
439822,25.5527,19.9999,0.000707602,1428.23,0.000176901,357.056,""
440657,25.5912,19.9999,0.00070534,1428.82,0.000176335,357.204,""
441472,25.5695,20.0001,0.000702772,1429.39,0.000175693,357.347,""
442358,25.7419,19.9999,0.000700002,1430.01,0.000175,357.503,""
443458,25.6238,19.9998,0.000697401,1430.78,0.00017435,357.695,""
444308,25.6657,19.9997,0.000695521,1431.37,0.00017388,357.843,""
445051,25.7012,20,0.000693456,1431.89,0.000173364,357.972,""
445521,25.6746,20,0.000691914,1432.21,0.000172978,358.053,""
446328,25.6601,19.9995,0.000689984,1432.77,0.000172496,358.193,""
447051,25.6255,19.9997,0.000687791,1433.27,0.000171948,358.317,""
447932,25.608,19.9999,0.000685661,1433.87,0.000171415,358.468,""
448765,25.5746,19.9999,0.000683415,1434.44,0.000170854,358.611,""
449397,25.656,20,0.000682201,1434.88,0.00017055,358.719,""
450045,25.6581,20.0003,0.000680354,1435.32,0.000170088,358.829,""
450820,25.6319,20,0.000678433,1435.84,0.000169608,358.961,""
451659,25.6572,20.0002,0.000675786,1436.41,0.000168946,359.103,""
452620,25.6324,19.999,0.000673566,1437.06,0.000168392,359.265,""
453161,25.6044,19.9998,0.000672103,1437.42,0.000168026,359.356,""
453743,25.7697,20.0001,0.000670908,1437.82,0.000167727,359.454,""
454604,25.5477,19.9999,0.000669063,1438.39,0.000167266,359.598,""
455241,25.6489,19.9998,0.000667683,1438.82,0.000166921,359.704,""
456180,25.6678,20,0.000665264,1439.44,0.000166316,359.861,""
457281,25.7248,20.0002,0.000662755,1440.17,0.000165689,360.044,""
458097,25.7365,20,0.000660281,1440.71,0.00016507,360.179,""
458825,25.5988,19.9996,0.000658818,1441.19,0.000164705,360.299,""
459375,25.7502,19.9998,0.00065786,1441.56,0.000164465,360.389,""
460056,25.7619,20.0001,0.000656366,1442,0.000164091,360.501,""
460931,25.7385,20.0002,0.000654133,1442.58,0.000163533,360.644,""
461908,25.7191,20.0002,0.000652109,1443.22,0.000163027,360.804,""
462628,25.6751,19.9996,0.000650265,1443.68,0.000162566,360.921,""
463849,25.5589,20.0002,0.000647607,1444.48,0.000161902,361.119,""
464843,25.6095,19.9998,0.000644848,1445.12,0.000161212,361.28,""
466445,25.5682,19.9997,0.000640624,1446.15,0.000160156,361.537,""
467366,25.5275,19.9998,0.000638664,1446.74,0.000159666,361.684,""
467970,25.5417,19.9995,0.000637186,1447.12,0.000159297,361.781,""
468582,25.5445,19.9997,0.000636029,1447.51,0.000159007,361.878,""
469435,25.5355,20.0002,0.000634463,1448.05,0.000158616,362.013,""
470222,25.5781,19.9998,0.000632541,1448.55,0.000158135,362.138,""
471022,25.5782,20.0003,0.000630808,1449.06,0.000157702,362.265,""
471893,25.6291,20.0003,0.000628669,1449.61,0.000157167,362.402,""
473014,25.5826,19.9999,0.0006255,1450.31,0.000156375,362.577,""
473790,25.7068,19.9993,0.000623826,1450.79,0.000155957,362.698,""
474777,25.6463,20,0.000622008,1451.41,0.000155502,362.852,""
475969,25.6051,20.0001,0.000619773,1452.15,0.000154943,363.037,""
477032,25.6729,20.0001,0.000617403,1452.81,0.000154351,363.202,""
477714,25.7139,20.0004,0.000615675,1453.23,0.000153919,363.307,""
478563,25.6644,19.9999,0.000613859,1453.75,0.000153465,363.437,""
479383,25.7359,20.0002,0.000611367,1454.25,0.000152842,363.563,""
480342,25.6747,19.9997,0.000609176,1454.84,0.000152294,363.709,""
481698,25.6895,19.9998,0.000606138,1455.66,0.000151535,363.915,""
482469,25.7129,19.9999,0.000604618,1456.13,0.000151154,364.032,""
483482,25.6674,19.9997,0.000602448,1456.74,0.000150612,364.185,""
484448,25.6657,19.9996,0.000600553,1457.32,0.000150138,364.33,""
485652,25.6719,19.9999,0.000597696,1458.04,0.000149424,364.51,""
486832,25.6772,19.9993,0.000594726,1458.74,0.000148681,364.686,""
487779,25.6874,19.9998,0.000592635,1459.31,0.000148159,364.827,""
489045,25.6973,20,0.000590298,1460.06,0.000147574,365.014,""
490330,25.7355,19.9996,0.000587109,1460.81,0.000146777,365.203,""
491237,25.7409,19.9998,0.000585295,1461.34,0.000146324,365.336,""
492045,25.511,19.9997,0.000583374,1461.82,0.000145843,365.454,""
493099,25.6013,19.9993,0.000581259,1462.43,0.000145315,365.608,""
494008,25.5682,20.0011,0.000579474,1462.96,0.000144869,365.739,""
494687,25.5215,19.9999,0.000577968,1463.35,0.000144492,365.838,""
495622,25.4912,19.9995,0.000575589,1463.89,0.000143897,365.973,""
496453,25.5194,20,0.000574183,1464.37,0.000143546,366.092,""
497349,25.5783,19.9995,0.000572377,1464.88,0.000143094,366.22,""
498051,25.5568,19.9999,0.000570569,1465.28,0.000142642,366.321,""
498655,25.6111,19.9998,0.000569481,1465.63,0.00014237,366.407,""
499490,25.6081,20.0001,0.000567777,1466.1,0.000141944,366.525,""
500590,25.5811,19.9999,0.000565521,1466.72,0.00014138,366.681,""
501355,25.5378,19.9998,0.000563988,1467.16,0.000140997,366.789,""
502429,26.4325,20.0005,0.000561602,1467.76,0.0001404,366.94,""
503195,26.5233,20.0003,0.000560143,1468.19,0.000140036,367.048,""
503801,26.24,19.9999,0.000559092,1468.53,0.000139773,367.132,""
504541,26.2094,19.9997,0.000557769,1468.94,0.000139442,367.236,""
505339,26.3979,19.9995,0.000556481,1469.39,0.00013912,367.347,""
505840,26.4166,20.0003,0.000555661,1469.67,0.000138915,367.417,""
506491,26.5234,19.9997,0.000554176,1470.03,0.000138544,367.507,""
507474,26.3961,19.9997,0.000551654,1470.57,0.000137914,367.643,""
508225,26.41,20,0.000549932,1470.98,0.000137483,367.746,""
508910,26.4318,19.9997,0.000548795,1471.36,0.000137199,367.84,""
509740,26.3102,20.0006,0.000546815,1471.82,0.000136704,367.954,""
510616,26.3528,20.0002,0.000544812,1472.29,0.000136203,368.074,""
511592,26.3477,20.0001,0.000542431,1472.83,0.000135608,368.206,""
512509,26.4536,20,0.000539931,1473.32,0.000134983,368.33,""
513256,26.4754,19.9998,0.000538396,1473.72,0.000134599,368.431,""
513897,26.4491,19.9993,0.000537122,1474.07,0.00013428,368.517,""
515202,26.5363,19.9998,0.000534793,1474.77,0.000133698,368.692,""
516007,26.4267,19.9998,0.000533284,1475.2,0.000133321,368.8,""
516625,26.542,20.0001,0.000532052,1475.53,0.000133013,368.882,""
517485,26.4273,19.9998,0.000529994,1475.98,0.000132499,368.996,""
518325,26.4476,20.0001,0.000528209,1476.43,0.000132052,369.107,""
519229,26.4282,20,0.000526248,1476.91,0.000131562,369.226,""
520193,26.4421,20,0.000524963,1477.41,0.000131241,369.353,""
520888,26.4821,20,0.000523118,1477.78,0.00013078,369.444,""
521841,26.3738,20.0002,0.00052122,1478.27,0.000130305,369.568,""
522412,26.4549,19.9999,0.000519801,1478.57,0.00012995,369.643,""
523303,26.395,19.9997,0.000517705,1479.03,0.000129426,369.758,""
524129,26.3027,19.9997,0.000517066,1479.46,0.000129266,369.865,""
524790,26.5015,20,0.000516092,1479.8,0.000129023,369.95,""
525766,26.4902,20,0.000514293,1480.3,0.000128573,370.076,""
526338,26.2106,19.999,0.000512573,1480.6,0.000128143,370.149,""
526915,26.4948,20.0004,0.000510775,1480.89,0.000127694,370.223,""
527523,26.4875,20,0.000510065,1481.2,0.000127516,370.301,""
528239,26.5922,19.9995,0.000509151,1481.57,0.000127288,370.392,""
529026,26.6542,19.9999,0.000507751,1481.97,0.000126938,370.492,""
529405,26.6554,19.9988,0.000507248,1482.16,0.000126812,370.54,""
530190,26.6017,20,0.000505345,1482.56,0.000126336,370.639,""
531042,26.5473,20,0.000503916,1482.99,0.000125979,370.747,""
531841,26.538,19.9995,0.000502933,1483.39,0.000125733,370.847,""
532948,26.5943,20.0002,0.000500324,1483.94,0.000125081,370.986,""
533826,26.4724,20.0002,0.000498531,1484.38,0.000124633,371.096,""
534421,26.5887,19.9998,0.000497247,1484.68,0.000124312,371.17,""
535578,26.5821,19.9999,0.000495478,1485.25,0.000123869,371.314,""
536319,25.7404,19.9995,0.000494355,1485.62,0.000123589,371.405,""
536943,25.7355,19.9993,0.000493373,1485.93,0.000123343,371.482,""
537992,25.618,19.9998,0.000491461,1486.45,0.000122865,371.611,""
538824,25.4686,19.9998,0.000489666,1486.85,0.000122416,371.713,""
539366,25.5161,19.9996,0.000488606,1487.12,0.000122152,371.78,""
539908,25.4327,20,0.0004875,1487.38,0.000121875,371.846,""
540715,25.325,19.9995,0.000485762,1487.78,0.00012144,371.944,""
541601,25.4452,19.9997,0.000484614,1488.21,0.000121153,372.052,""
542544,25.4174,19.9999,0.000483038,1488.66,0.000120759,372.165,""
543309,25.4198,19.9997,0.000481271,1489.03,0.000120318,372.258,""
544186,25.3469,20,0.00048007,1489.45,0.000120018,372.363,""
545230,25.209,19.9997,0.000478218,1489.95,0.000119554,372.488,""
545991,25.2738,19.9997,0.000476757,1490.32,0.000119189,372.579,""
546850,25.3602,20.0001,0.000475492,1490.72,0.000118873,372.681,""
547582,25.3763,19.9997,0.000474705,1491.07,0.000118676,372.768,""
548616,25.2961,20.0001,0.000472804,1491.56,0.000118201,372.891,""
549354,25.331,20.0002,0.000471462,1491.91,0.000117865,372.978,""
550066,25.4011,19.9997,0.000470187,1492.25,0.000117547,373.062,""
550668,25.4416,20,0.000469463,1492.53,0.000117366,373.132,""
551523,25.2674,19.9996,0.000467941,1492.93,0.000116985,373.232,""
552275,25.3292,19.9995,0.00046697,1493.28,0.000116743,373.32,""
553179,25.1462,19.9995,0.000465168,1493.7,0.000116292,373.426,""
554092,25.0632,19.9994,0.000463715,1494.13,0.000115929,373.532,""
555250,25.0394,19.999,0.000462228,1494.66,0.000115557,373.666,""
556758,25.0109,20.0002,0.000459884,1495.36,0.000114971,373.84,""
557788,25.0318,19.9998,0.000458335,1495.83,0.000114584,373.958,""
558765,25.0081,19.9994,0.000456505,1496.28,0.000114126,374.07,""
559941,25.0374,19.9999,0.000454718,1496.81,0.000113679,374.204,""
561117,25.0396,19.9998,0.000453129,1497.35,0.000113282,374.337,""
562123,25.0283,19.9998,0.000451759,1497.8,0.00011294,374.451,""
563217,24.9919,19.9994,0.000450236,1498.3,0.000112559,374.574,""
564632,24.9957,20,0.000447873,1498.93,0.000111968,374.733,""
565614,24.9566,19.9999,0.000446403,1499.37,0.000111601,374.843,""
566786,24.9602,19.9989,0.000444387,1499.89,0.000111097,374.973,""
567807,24.9532,19.9997,0.000443324,1500.35,0.000110831,375.087,""
569393,24.9375,19.9999,0.000441073,1501.05,0.000110268,375.262,""
570502,24.9597,20,0.000439473,1501.54,0.000109868,375.384,""
571415,24.9673,19.9995,0.000437722,1501.94,0.00010943,375.484,""
572401,24.9601,19.9999,0.000436679,1502.37,0.00010917,375.592,""
573304,24.9333,19.9999,0.00043504,1502.76,0.00010876,375.69,""
574600,24.9233,19.9998,0.000432403,1503.32,0.000108101,375.831,""
575764,24.9269,19.9997,0.000430711,1503.83,0.000107678,375.957,""
576950,24.9325,19.9999,0.000428933,1504.34,0.000107233,376.084,""
577838,24.9116,19.9998,0.000428145,1504.72,0.000107036,376.179,""
578945,24.9148,20.0001,0.000425653,1505.19,0.000106413,376.297,""
579616,24.9316,20,0.000424534,1505.48,0.000106134,376.369,""
580453,24.925,19.9997,0.000423237,1505.83,0.000105809,376.458,""
581254,24.98,19.9999,0.000421923,1506.17,0.000105481,376.542,""
582434,25.0006,20.0001,0.000420535,1506.67,0.000105134,376.666,""
583338,24.9848,19.9999,0.000419912,1507.05,0.000104978,376.761,""
584266,25.54,19.9996,0.000418339,1507.43,0.000104585,376.859,""
585537,25.6407,20.0003,0.000416968,1507.96,0.000104242,376.991,""
586412,25.6925,19.9997,0.000416059,1508.33,0.000104015,377.082,""
587194,25.5897,19.9999,0.000415177,1508.65,0.000103794,377.164,""
588404,25.7842,19.9999,0.000413581,1509.16,0.000103395,377.289,""
589257,25.6585,20.0004,0.000412166,1509.51,0.000103042,377.377,""
589935,25.5891,19.9999,0.00041129,1509.79,0.000102822,377.447,""
590715,25.797,19.9998,0.000409687,1510.11,0.000102422,377.527,""
591305,25.7838,20.0003,0.000408682,1510.35,0.000102171,377.587,""
592147,25.9489,19.9998,0.000407582,1510.69,0.000101896,377.673,""
592900,25.8245,19.9997,0.000406159,1511,0.00010154,377.75,""
594091,25.9174,19.9996,0.000404562,1511.48,0.000101141,377.87,""
594655,25.9334,19.9997,0.000403556,1511.71,0.000100889,377.927,""
595392,25.9679,19.9998,0.000402785,1512.01,0.000100696,378.002,""
596301,25.9725,19.9999,0.00040078,1512.37,0.000100195,378.093,""
597208,25.9838,20.0003,0.000399435,1512.74,9.98586e-05,378.184,""
597979,25.927,20.0001,0.000398704,1513.04,9.96759e-05,378.261,""
598881,25.9714,19.9996,0.000397159,1513.4,9.92898e-05,378.35,""
599732,26.0376,20.0006,0.000396213,1513.74,9.90532e-05,378.435,""
600756,25.918,19.9998,0.000394177,1514.14,9.85442e-05,378.536,""
601867,25.9118,19.9998,0.000392538,1514.58,9.81346e-05,378.645,""
602434,26.0128,19.9999,0.000391308,1514.8,9.7827e-05,378.701,""
602743,25.9013,20,0.000391079,1514.92,9.77699e-05,378.731,""
602744,25.9016,20,NaN,NaN,NaN,NaN,"Ampoule removed"
602744,25.9016,20,NaN,NaN,NaN,NaN,""